{"clinicalData": {
    "studyOID": "cdisc.com/CDISCPILOT01",
    "metaDataVersionOID": "MDV.MSGv2.0.SDTMIG.3.3.SDTM.1.7",
    "itemGroupData": {"IG.LB": {
        "records": 1913,
        "name": "LB",
        "label": "Laboratory Test Results",
        "items": [
            {
                "OID": "IT.LB.STUDYID",
                "name": "STUDYID",
                "label": "Study Identifier",
                "type": "string",
                "length": 12
            },
            {
                "OID": "IT.LB.DOMAIN",
                "name": "DOMAIN",
                "label": "Domain Abbreviation",
                "type": "string",
                "length": 2
            },
            {
                "OID": "IT.LB.USUBJID",
                "name": "USUBJID",
                "label": "Unique Subject Identifier",
                "type": "string",
                "length": 8
            },
            {
                "OID": "IT.LB.LBSEQ",
                "name": "LBSEQ",
                "label": "Sequence Number",
                "type": "integer"
            },
            {
                "OID": "IT.LB.LBTESTCD",
                "name": "LBTESTCD",
                "label": "Lab Test or Examination Short Name",
                "type": "string",
                "length": 7
            },
            {
                "OID": "IT.LB.LBTEST",
                "name": "LBTEST",
                "label": "Lab Test or Examination Name",
                "type": "string",
                "length": 39
            },
            {
                "OID": "IT.LB.LBCAT",
                "name": "LBCAT",
                "label": "Category for Lab Test",
                "type": "string",
                "length": 10
            },
            {
                "OID": "IT.LB.LBORRES",
                "name": "LBORRES",
                "label": "Result or Finding in Original Units",
                "type": "string",
                "length": 6
            },
            {
                "OID": "IT.LB.LBORRESU",
                "name": "LBORRESU",
                "label": "Original Units",
                "type": "string",
                "length": 7
            },
            {
                "OID": "IT.LB.LBORNRLO",
                "name": "LBORNRLO",
                "label": "Reference Range Lower Limit in Orig Unit",
                "type": "string",
                "length": 200
            },
            {
                "OID": "IT.LB.LBORNRHI",
                "name": "LBORNRHI",
                "label": "Reference Range Upper Limit in Orig Unit",
                "type": "string",
                "length": 200
            },
            {
                "OID": "IT.LB.LBSTRESC",
                "name": "LBSTRESC",
                "label": "Character Result/Finding in Std Format",
                "type": "string",
                "length": 8
            },
            {
                "OID": "IT.LB.LBSTRESN",
                "name": "LBSTRESN",
                "label": "Numeric Result/Finding in Standard Units",
                "type": "float",
                "length": 8,
                "fractionDigits": 5
            },
            {
                "OID": "IT.LB.LBSTRESU",
                "name": "LBSTRESU",
                "label": "Standard Units",
                "type": "string",
                "length": 7
            },
            {
                "OID": "IT.LB.LBSTNRLO",
                "name": "LBSTNRLO",
                "label": "Reference Range Lower Limit-Std Units",
                "type": "float",
                "length": 5,
                "fractionDigits": 3
            },
            {
                "OID": "IT.LB.LBSTNRHI",
                "name": "LBSTNRHI",
                "label": "Reference Range Upper Limit-Std Units",
                "type": "float",
                "length": 5,
                "fractionDigits": 2
            },
            {
                "OID": "IT.LB.LBNRIND",
                "name": "LBNRIND",
                "label": "Reference Range Indicator",
                "type": "string",
                "length": 8
            },
            {
                "OID": "IT.LB.LBLOBXFL",
                "name": "LBLOBXFL",
                "label": "Last Observation Before Exposure Flag",
                "type": "string",
                "length": 1
            },
            {
                "OID": "IT.LB.VISITNUM",
                "name": "VISITNUM",
                "label": "Visit Number",
                "type": "float",
                "length": 8,
                "fractionDigits": 2
            },
            {
                "OID": "IT.LB.VISIT",
                "name": "VISIT",
                "label": "Visit Name",
                "type": "string",
                "length": 200
            },
            {
                "OID": "IT.LB.EPOCH",
                "name": "EPOCH",
                "label": "Epoch",
                "type": "string",
                "length": 9
            },
            {
                "OID": "IT.LB.LBDTC",
                "name": "LBDTC",
                "label": "Date/Time of Specimen Collection",
                "type": "string"
            },
            {
                "OID": "IT.LB.LBDY",
                "name": "LBDY",
                "label": "Study Day of Specimen Collection",
                "type": "integer"
            }
        ],
        "itemData": [
            [
                "CDISCPILOT01",
                "LB",
                "CDISC001",
                1,
                "ALB",
                "Albumin",
                "CHEMISTRY",
                "3.9",
                "g/dL",
                "3.5",
                "4.6",
                "39",
                39,
                "g/L",
                35,
                46,
                "NORMAL",
                "Y",
                1,
                "SCREENING 1",
                "SCREENING",
                "2012-11-23T11:20",
                -7
            ],
            [
                "CDISCPILOT01",
                "LB",
                "CDISC001",
                2,
                "ALP",
                "Alkaline Phosphatase",
                "CHEMISTRY",
                "93",
                "U/L",
                "35",
                "115",
                "93",
                93,
                "U/L",
                35,
                115,
                "NORMAL",
                "Y",
                1,
                "SCREENING 1",
                "SCREENING",
                "2012-11-23T11:20",
                -7
            ],
            [
                "CDISCPILOT01",
                "LB",
                "CDISC001",
                3,
                "ALT",
                "Alanine Aminotransferase",
                "CHEMISTRY",
                "18",
                "U/L",
                "6",
                "35",
                "18",
                18,
                "U/L",
                6,
                35,
                "NORMAL",
                "Y",
                1,
                "SCREENING 1",
                "SCREENING",
                "2012-11-23T11:20",
                -7
            ],
            [
                "CDISCPILOT01",
                "LB",
                "CDISC001",
                4,
                "AST",
                "Aspartate Aminotransferase",
                "CHEMISTRY",
                "26",
                "U/L",
                "11",
                "36",
                "26",
                26,
                "U/L",
                11,
                36,
                "NORMAL",
                "Y",
                1,
                "SCREENING 1",
                "SCREENING",
                "2012-11-23T11:20",
                -7
            ],
            [
                "CDISCPILOT01",
                "LB",
                "CDISC001",
                6,
                "BILI",
                "Bilirubin",
                "CHEMISTRY",
                "0.5",
                "mg/dL",
                "0.2",
                "1.2",
                "8.55",
                8.55,
                "umol/L",
                3,
                21,
                "NORMAL",
                "Y",
                1,
                "SCREENING 1",
                "SCREENING",
                "2012-11-23T11:20",
                -7
            ],
            [
                "CDISCPILOT01",
                "LB",
                "CDISC001",
                7,
                "UREAN",
                "Urea Nitrogen",
                "CHEMISTRY",
                "21",
                "mg/dL",
                "4",
                "24",
                "7.497",
                7.497,
                "mmol/L",
                1.4,
                8.6,
                "NORMAL",
                "Y",
                1,
                "SCREENING 1",
                "SCREENING",
                "2012-11-23T11:20",
                -7
            ],
            [
                "CDISCPILOT01",
                "LB",
                "CDISC001",
                8,
                "CA",
                "Calcium",
                "CHEMISTRY",
                "9.1",
                "mg/dL",
                "8.4",
                "10.3",
                "2.27045",
                2.27045,
                "mmol/L",
                2.1,
                2.57,
                "NORMAL",
                "Y",
                1,
                "SCREENING 1",
                "SCREENING",
                "2012-11-23T11:20",
                -7
            ],
            [
                "CDISCPILOT01",
                "LB",
                "CDISC001",
                9,
                "CHOL",
                "Cholesterol",
                "CHEMISTRY",
                "254",
                "mg/dL",
                "149",
                "286",
                "6.56844",
                6.56844,
                "mmol/L",
                3.85,
                7.4,
                "NORMAL",
                "Y",
                1,
                "SCREENING 1",
                "SCREENING",
                "2012-11-23T11:20",
                -7
            ],
            [
                "CDISCPILOT01",
                "LB",
                "CDISC001",
                10,
                "CK",
                "Creatine Kinase",
                "CHEMISTRY",
                "79",
                "U/L",
                "22",
                "198",
                "79",
                79,
                "U/L",
                22,
                198,
                "NORMAL",
                "Y",
                1,
                "SCREENING 1",
                "SCREENING",
                "2012-11-23T11:20",
                -7
            ],
            [
                "CDISCPILOT01",
                "LB",
                "CDISC001",
                11,
                "CL",
                "Chloride",
                "CHEMISTRY",
                "102",
                "mEq/L",
                "94",
                "112",
                "102",
                102,
                "mmol/L",
                94,
                112,
                "NORMAL",
                "Y",
                1,
                "SCREENING 1",
                "SCREENING",
                "2012-11-23T11:20",
                -7
            ],
            [
                "CDISCPILOT01",
                "LB",
                "CDISC001",
                13,
                "CREAT",
                "Creatinine",
                "CHEMISTRY",
                "1.3",
                "mg/dL",
                "0.8",
                "1.6",
                "114.92",
                114.92,
                "umol/L",
                71,
                141,
                "NORMAL",
                "Y",
                1,
                "SCREENING 1",
                "SCREENING",
                "2012-11-23T11:20",
                -7
            ],
            [
                "CDISCPILOT01",
                "LB",
                "CDISC001",
                15,
                "GGT",
                "Gamma Glutamyl Transferase",
                "CHEMISTRY",
                "31",
                "U/L",
                "10",
                "50",
                "31",
                31,
                "U/L",
                10,
                50,
                "NORMAL",
                "Y",
                1,
                "SCREENING 1",
                "SCREENING",
                "2012-11-23T11:20",
                -7
            ],
            [
                "CDISCPILOT01",
                "LB",
                "CDISC001",
                16,
                "GLUC",
                "Glucose",
                "CHEMISTRY",
                "74",
                "mg/dL",
                "50",
                "250",
                "4.10774",
                4.10774,
                "mmol/L",
                2.8,
                13.9,
                "NORMAL",
                "Y",
                1,
                "SCREENING 1",
                "SCREENING",
                "2012-11-23T11:20",
                -7
            ],
            [
                "CDISCPILOT01",
                "LB",
                "CDISC001",
                19,
                "K",
                "Potassium",
                "CHEMISTRY",
                "4.3",
                "mEq/L",
                "3.4",
                "5.4",
                "4.3",
                4.3,
                "mmol/L",
                3.4,
                5.4,
                "NORMAL",
                "Y",
                1,
                "SCREENING 1",
                "SCREENING",
                "2012-11-23T11:20",
                -7
            ],
            [
                "CDISCPILOT01",
                "LB",
                "CDISC001",
                26,
                "SODIUM",
                "Sodium",
                "CHEMISTRY",
                "139",
                "mEq/L",
                "135",
                "145",
                "139",
                139,
                "mmol/L",
                135,
                145,
                "NORMAL",
                "Y",
                1,
                "SCREENING 1",
                "SCREENING",
                "2012-11-23T11:20",
                -7
            ],
            [
                "CDISCPILOT01",
                "LB",
                "CDISC001",
                28,
                "PHOS",
                "Phosphate",
                "CHEMISTRY",
                "3.4",
                "mg/dL",
                "2.2",
                "5.1",
                "1.09786",
                1.09786,
                "mmol/L",
                0.71,
                1.65,
                "NORMAL",
                "Y",
                1,
                "SCREENING 1",
                "SCREENING",
                "2012-11-23T11:20",
                -7
            ],
            [
                "CDISCPILOT01",
                "LB",
                "CDISC001",
                30,
                "PROT",
                "Protein",
                "CHEMISTRY",
                "6.7",
                "g/dL",
                "6",
                "8",
                "67",
                67,
                "g/L",
                60,
                80,
                "NORMAL",
                "Y",
                1,
                "SCREENING 1",
                "SCREENING",
                "2012-11-23T11:20",
                -7
            ],
            [
                "CDISCPILOT01",
                "LB",
                "CDISC001",
                34,
                "URATE",
                "Urate",
                "CHEMISTRY",
                "4.9",
                "mg/dL",
                "2.5",
                "7.5",
                "291.452",
                291.452,
                "umol/L",
                149,
                446,
                "NORMAL",
                "Y",
                1,
                "SCREENING 1",
                "SCREENING",
                "2012-11-23T11:20",
                -7
            ],
            [
                "CDISCPILOT01",
                "LB",
                "CDISC001",
                38,
                "ALB",
                "Albumin",
                "CHEMISTRY",
                "3.6",
                "g/dL",
                "3.5",
                "4.6",
                "36",
                36,
                "g/L",
                35,
                46,
                "NORMAL",
                "",
                4,
                "WEEK 2",
                "TREATMENT",
                "2012-12-13T14:05",
                14
            ],
            [
                "CDISCPILOT01",
                "LB",
                "CDISC001",
                39,
                "ALP",
                "Alkaline Phosphatase",
                "CHEMISTRY",
                "88",
                "U/L",
                "35",
                "115",
                "88",
                88,
                "U/L",
                35,
                115,
                "NORMAL",
                "",
                4,
                "WEEK 2",
                "TREATMENT",
                "2012-12-13T14:05",
                14
            ],
            [
                "CDISCPILOT01",
                "LB",
                "CDISC001",
                40,
                "ALT",
                "Alanine Aminotransferase",
                "CHEMISTRY",
                "15",
                "U/L",
                "6",
                "35",
                "15",
                15,
                "U/L",
                6,
                35,
                "NORMAL",
                "",
                4,
                "WEEK 2",
                "TREATMENT",
                "2012-12-13T14:05",
                14
            ],
            [
                "CDISCPILOT01",
                "LB",
                "CDISC001",
                41,
                "AST",
                "Aspartate Aminotransferase",
                "CHEMISTRY",
                "25",
                "U/L",
                "11",
                "36",
                "25",
                25,
                "U/L",
                11,
                36,
                "NORMAL",
                "",
                4,
                "WEEK 2",
                "TREATMENT",
                "2012-12-13T14:05",
                14
            ],
            [
                "CDISCPILOT01",
                "LB",
                "CDISC001",
                43,
                "BILI",
                "Bilirubin",
                "CHEMISTRY",
                "0.4",
                "mg/dL",
                "0.2",
                "1.2",
                "6.84",
                6.84,
                "umol/L",
                3,
                21,
                "NORMAL",
                "",
                4,
                "WEEK 2",
                "TREATMENT",
                "2012-12-13T14:05",
                14
            ],
            [
                "CDISCPILOT01",
                "LB",
                "CDISC001",
                44,
                "UREAN",
                "Urea Nitrogen",
                "CHEMISTRY",
                "22",
                "mg/dL",
                "4",
                "24",
                "7.854",
                7.854,
                "mmol/L",
                1.4,
                8.6,
                "NORMAL",
                "",
                4,
                "WEEK 2",
                "TREATMENT",
                "2012-12-13T14:05",
                14
            ],
            [
                "CDISCPILOT01",
                "LB",
                "CDISC001",
                45,
                "CA",
                "Calcium",
                "CHEMISTRY",
                "8.9",
                "mg/dL",
                "8.4",
                "10.3",
                "2.22055",
                2.22055,
                "mmol/L",
                2.1,
                2.57,
                "NORMAL",
                "",
                4,
                "WEEK 2",
                "TREATMENT",
                "2012-12-13T14:05",
                14
            ],
            [
                "CDISCPILOT01",
                "LB",
                "CDISC001",
                46,
                "CHOL",
                "Cholesterol",
                "CHEMISTRY",
                "226",
                "mg/dL",
                "149",
                "286",
                "5.84436",
                5.84436,
                "mmol/L",
                3.85,
                7.4,
                "NORMAL",
                "",
                4,
                "WEEK 2",
                "TREATMENT",
                "2012-12-13T14:05",
                14
            ],
            [
                "CDISCPILOT01",
                "LB",
                "CDISC001",
                47,
                "CK",
                "Creatine Kinase",
                "CHEMISTRY",
                "73",
                "U/L",
                "22",
                "198",
                "73",
                73,
                "U/L",
                22,
                198,
                "NORMAL",
                "",
                4,
                "WEEK 2",
                "TREATMENT",
                "2012-12-13T14:05",
                14
            ],
            [
                "CDISCPILOT01",
                "LB",
                "CDISC001",
                48,
                "CL",
                "Chloride",
                "CHEMISTRY",
                "107",
                "mEq/L",
                "94",
                "112",
                "107",
                107,
                "mmol/L",
                94,
                112,
                "NORMAL",
                "",
                4,
                "WEEK 2",
                "TREATMENT",
                "2012-12-13T14:05",
                14
            ],
            [
                "CDISCPILOT01",
                "LB",
                "CDISC001",
                50,
                "CREAT",
                "Creatinine",
                "CHEMISTRY",
                "1.3",
                "mg/dL",
                "0.8",
                "1.6",
                "114.92",
                114.92,
                "umol/L",
                71,
                141,
                "NORMAL",
                "",
                4,
                "WEEK 2",
                "TREATMENT",
                "2012-12-13T14:05",
                14
            ],
            [
                "CDISCPILOT01",
                "LB",
                "CDISC001",
                52,
                "GGT",
                "Gamma Glutamyl Transferase",
                "CHEMISTRY",
                "31",
                "U/L",
                "10",
                "50",
                "31",
                31,
                "U/L",
                10,
                50,
                "NORMAL",
                "",
                4,
                "WEEK 2",
                "TREATMENT",
                "2012-12-13T14:05",
                14
            ],
            [
                "CDISCPILOT01",
                "LB",
                "CDISC001",
                53,
                "GLUC",
                "Glucose",
                "CHEMISTRY",
                "85",
                "mg/dL",
                "50",
                "250",
                "4.71835",
                4.71835,
                "mmol/L",
                2.8,
                13.9,
                "NORMAL",
                "",
                4,
                "WEEK 2",
                "TREATMENT",
                "2012-12-13T14:05",
                14
            ],
            [
                "CDISCPILOT01",
                "LB",
                "CDISC001",
                56,
                "K",
                "Potassium",
                "CHEMISTRY",
                "5.1",
                "mEq/L",
                "3.4",
                "5.4",
                "5.1",
                5.1,
                "mmol/L",
                3.4,
                5.4,
                "NORMAL",
                "",
                4,
                "WEEK 2",
                "TREATMENT",
                "2012-12-13T14:05",
                14
            ],
            [
                "CDISCPILOT01",
                "LB",
                "CDISC001",
                63,
                "SODIUM",
                "Sodium",
                "CHEMISTRY",
                "142",
                "mEq/L",
                "135",
                "145",
                "142",
                142,
                "mmol/L",
                135,
                145,
                "NORMAL",
                "",
                4,
                "WEEK 2",
                "TREATMENT",
                "2012-12-13T14:05",
                14
            ],
            [
                "CDISCPILOT01",
                "LB",
                "CDISC001",
                65,
                "PHOS",
                "Phosphate",
                "CHEMISTRY",
                "3.7",
                "mg/dL",
                "2.2",
                "5.1",
                "1.19473",
                1.19473,
                "mmol/L",
                0.71,
                1.65,
                "NORMAL",
                "",
                4,
                "WEEK 2",
                "TREATMENT",
                "2012-12-13T14:05",
                14
            ],
            [
                "CDISCPILOT01",
                "LB",
                "CDISC001",
                67,
                "PROT",
                "Protein",
                "CHEMISTRY",
                "6.3",
                "g/dL",
                "6",
                "8",
                "63",
                63,
                "g/L",
                60,
                80,
                "NORMAL",
                "",
                4,
                "WEEK 2",
                "TREATMENT",
                "2012-12-13T14:05",
                14
            ],
            [
                "CDISCPILOT01",
                "LB",
                "CDISC001",
                70,
                "URATE",
                "Urate",
                "CHEMISTRY",
                "4.4",
                "mg/dL",
                "2.5",
                "7.5",
                "261.712",
                261.712,
                "umol/L",
                149,
                446,
                "NORMAL",
                "",
                4,
                "WEEK 2",
                "TREATMENT",
                "2012-12-13T14:05",
                14
            ],
            [
                "CDISCPILOT01",
                "LB",
                "CDISC001",
                73,
                "ALB",
                "Albumin",
                "CHEMISTRY",
                "3.5",
                "g/dL",
                "3.5",
                "4.6",
                "35",
                35,
                "g/L",
                35,
                46,
                "NORMAL",
                "",
                5,
                "WEEK 4",
                "TREATMENT",
                "2012-12-26T08:44",
                27
            ],
            [
                "CDISCPILOT01",
                "LB",
                "CDISC001",
                74,
                "ALP",
                "Alkaline Phosphatase",
                "CHEMISTRY",
                "91",
                "U/L",
                "35",
                "115",
                "91",
                91,
                "U/L",
                35,
                115,
                "NORMAL",
                "",
                5,
                "WEEK 4",
                "TREATMENT",
                "2012-12-26T08:44",
                27
            ],
            [
                "CDISCPILOT01",
                "LB",
                "CDISC001",
                75,
                "ALT",
                "Alanine Aminotransferase",
                "CHEMISTRY",
                "13",
                "U/L",
                "6",
                "35",
                "13",
                13,
                "U/L",
                6,
                35,
                "NORMAL",
                "",
                5,
                "WEEK 4",
                "TREATMENT",
                "2012-12-26T08:44",
                27
            ],
            [
                "CDISCPILOT01",
                "LB",
                "CDISC001",
                76,
                "AST",
                "Aspartate Aminotransferase",
                "CHEMISTRY",
                "20",
                "U/L",
                "11",
                "36",
                "20",
                20,
                "U/L",
                11,
                36,
                "NORMAL",
                "",
                5,
                "WEEK 4",
                "TREATMENT",
                "2012-12-26T08:44",
                27
            ],
            [
                "CDISCPILOT01",
                "LB",
                "CDISC001",
                78,
                "BILI",
                "Bilirubin",
                "CHEMISTRY",
                "0.4",
                "mg/dL",
                "0.2",
                "1.2",
                "6.84",
                6.84,
                "umol/L",
                3,
                21,
                "NORMAL",
                "",
                5,
                "WEEK 4",
                "TREATMENT",
                "2012-12-26T08:44",
                27
            ],
            [
                "CDISCPILOT01",
                "LB",
                "CDISC001",
                79,
                "UREAN",
                "Urea Nitrogen",
                "CHEMISTRY",
                "20",
                "mg/dL",
                "4",
                "24",
                "7.14",
                7.14,
                "mmol/L",
                1.4,
                8.6,
                "NORMAL",
                "",
                5,
                "WEEK 4",
                "TREATMENT",
                "2012-12-26T08:44",
                27
            ],
            [
                "CDISCPILOT01",
                "LB",
                "CDISC001",
                80,
                "CA",
                "Calcium",
                "CHEMISTRY",
                "9.2",
                "mg/dL",
                "8.4",
                "10.3",
                "2.2954",
                2.2954,
                "mmol/L",
                2.1,
                2.57,
                "NORMAL",
                "",
                5,
                "WEEK 4",
                "TREATMENT",
                "2012-12-26T08:44",
                27
            ],
            [
                "CDISCPILOT01",
                "LB",
                "CDISC001",
                81,
                "CHOL",
                "Cholesterol",
                "CHEMISTRY",
                "219",
                "mg/dL",
                "149",
                "286",
                "5.66334",
                5.66334,
                "mmol/L",
                3.85,
                7.4,
                "NORMAL",
                "",
                5,
                "WEEK 4",
                "TREATMENT",
                "2012-12-26T08:44",
                27
            ],
            [
                "CDISCPILOT01",
                "LB",
                "CDISC001",
                82,
                "CK",
                "Creatine Kinase",
                "CHEMISTRY",
                "75",
                "U/L",
                "22",
                "198",
                "75",
                75,
                "U/L",
                22,
                198,
                "NORMAL",
                "",
                5,
                "WEEK 4",
                "TREATMENT",
                "2012-12-26T08:44",
                27
            ],
            [
                "CDISCPILOT01",
                "LB",
                "CDISC001",
                83,
                "CL",
                "Chloride",
                "CHEMISTRY",
                "106",
                "mEq/L",
                "94",
                "112",
                "106",
                106,
                "mmol/L",
                94,
                112,
                "NORMAL",
                "",
                5,
                "WEEK 4",
                "TREATMENT",
                "2012-12-26T08:44",
                27
            ],
            [
                "CDISCPILOT01",
                "LB",
                "CDISC001",
                84,
                "CREAT",
                "Creatinine",
                "CHEMISTRY",
                "1.3",
                "mg/dL",
                "0.8",
                "1.6",
                "114.92",
                114.92,
                "umol/L",
                71,
                141,
                "NORMAL",
                "",
                5,
                "WEEK 4",
                "TREATMENT",
                "2012-12-26T08:44",
                27
            ],
            [
                "CDISCPILOT01",
                "LB",
                "CDISC001",
                86,
                "GGT",
                "Gamma Glutamyl Transferase",
                "CHEMISTRY",
                "30",
                "U/L",
                "10",
                "50",
                "30",
                30,
                "U/L",
                10,
                50,
                "NORMAL",
                "",
                5,
                "WEEK 4",
                "TREATMENT",
                "2012-12-26T08:44",
                27
            ],
            [
                "CDISCPILOT01",
                "LB",
                "CDISC001",
                87,
                "GLUC",
                "Glucose",
                "CHEMISTRY",
                "<40",
                "mg/dL",
                "50",
                "250",
                "<2.2204",
                "",
                "mmol/L",
                2.8,
                13.9,
                "LOW",
                "",
                5,
                "WEEK 4",
                "TREATMENT",
                "2012-12-26T08:44",
                27
            ],
            [
                "CDISCPILOT01",
                "LB",
                "CDISC001",
                90,
                "K",
                "Potassium",
                "CHEMISTRY",
                "4.7",
                "mEq/L",
                "3.4",
                "5.4",
                "4.7",
                4.7,
                "mmol/L",
                3.4,
                5.4,
                "NORMAL",
                "",
                5,
                "WEEK 4",
                "TREATMENT",
                "2012-12-26T08:44",
                27
            ],
            [
                "CDISCPILOT01",
                "LB",
                "CDISC001",
                96,
                "SODIUM",
                "Sodium",
                "CHEMISTRY",
                "140",
                "mEq/L",
                "135",
                "145",
                "140",
                140,
                "mmol/L",
                135,
                145,
                "NORMAL",
                "",
                5,
                "WEEK 4",
                "TREATMENT",
                "2012-12-26T08:44",
                27
            ],
            [
                "CDISCPILOT01",
                "LB",
                "CDISC001",
                97,
                "PHOS",
                "Phosphate",
                "CHEMISTRY",
                "3.1",
                "mg/dL",
                "2.2",
                "5.1",
                "1.00099",
                1.00099,
                "mmol/L",
                0.71,
                1.65,
                "NORMAL",
                "",
                5,
                "WEEK 4",
                "TREATMENT",
                "2012-12-26T08:44",
                27
            ],
            [
                "CDISCPILOT01",
                "LB",
                "CDISC001",
                99,
                "PROT",
                "Protein",
                "CHEMISTRY",
                "6.3",
                "g/dL",
                "6",
                "8",
                "63",
                63,
                "g/L",
                60,
                80,
                "NORMAL",
                "",
                5,
                "WEEK 4",
                "TREATMENT",
                "2012-12-26T08:44",
                27
            ],
            [
                "CDISCPILOT01",
                "LB",
                "CDISC001",
                101,
                "URATE",
                "Urate",
                "CHEMISTRY",
                "4.7",
                "mg/dL",
                "2.5",
                "7.5",
                "279.556",
                279.556,
                "umol/L",
                149,
                446,
                "NORMAL",
                "",
                5,
                "WEEK 4",
                "TREATMENT",
                "2012-12-26T08:44",
                27
            ],
            [
                "CDISCPILOT01",
                "LB",
                "CDISC001",
                103,
                "ALB",
                "Albumin",
                "CHEMISTRY",
                "3.7",
                "g/dL",
                "3.5",
                "4.6",
                "37",
                37,
                "g/L",
                35,
                46,
                "NORMAL",
                "",
                5.01,
                "WEEK 4: UNSCHEDULED 01",
                "TREATMENT",
                "2012-12-28T09:27",
                29
            ],
            [
                "CDISCPILOT01",
                "LB",
                "CDISC001",
                104,
                "ALP",
                "Alkaline Phosphatase",
                "CHEMISTRY",
                "101",
                "U/L",
                "35",
                "115",
                "101",
                101,
                "U/L",
                35,
                115,
                "NORMAL",
                "",
                5.01,
                "WEEK 4: UNSCHEDULED 01",
                "TREATMENT",
                "2012-12-28T09:27",
                29
            ],
            [
                "CDISCPILOT01",
                "LB",
                "CDISC001",
                105,
                "ALT",
                "Alanine Aminotransferase",
                "CHEMISTRY",
                "16",
                "U/L",
                "6",
                "35",
                "16",
                16,
                "U/L",
                6,
                35,
                "NORMAL",
                "",
                5.01,
                "WEEK 4: UNSCHEDULED 01",
                "TREATMENT",
                "2012-12-28T09:27",
                29
            ],
            [
                "CDISCPILOT01",
                "LB",
                "CDISC001",
                106,
                "AST",
                "Aspartate Aminotransferase",
                "CHEMISTRY",
                "23",
                "U/L",
                "11",
                "36",
                "23",
                23,
                "U/L",
                11,
                36,
                "NORMAL",
                "",
                5.01,
                "WEEK 4: UNSCHEDULED 01",
                "TREATMENT",
                "2012-12-28T09:27",
                29
            ],
            [
                "CDISCPILOT01",
                "LB",
                "CDISC001",
                107,
                "BILI",
                "Bilirubin",
                "CHEMISTRY",
                "0.3",
                "mg/dL",
                "0.2",
                "1.2",
                "5.13",
                5.13,
                "umol/L",
                3,
                21,
                "NORMAL",
                "",
                5.01,
                "WEEK 4: UNSCHEDULED 01",
                "TREATMENT",
                "2012-12-28T09:27",
                29
            ],
            [
                "CDISCPILOT01",
                "LB",
                "CDISC001",
                108,
                "UREAN",
                "Urea Nitrogen",
                "CHEMISTRY",
                "21",
                "mg/dL",
                "4",
                "24",
                "7.497",
                7.497,
                "mmol/L",
                1.4,
                8.6,
                "NORMAL",
                "",
                5.01,
                "WEEK 4: UNSCHEDULED 01",
                "TREATMENT",
                "2012-12-28T09:27",
                29
            ],
            [
                "CDISCPILOT01",
                "LB",
                "CDISC001",
                109,
                "CA",
                "Calcium",
                "CHEMISTRY",
                "9.6",
                "mg/dL",
                "8.4",
                "10.3",
                "2.3952",
                2.3952,
                "mmol/L",
                2.1,
                2.57,
                "NORMAL",
                "",
                5.01,
                "WEEK 4: UNSCHEDULED 01",
                "TREATMENT",
                "2012-12-28T09:27",
                29
            ],
            [
                "CDISCPILOT01",
                "LB",
                "CDISC001",
                110,
                "CHOL",
                "Cholesterol",
                "CHEMISTRY",
                "235",
                "mg/dL",
                "149",
                "286",
                "6.0771",
                6.0771,
                "mmol/L",
                3.85,
                7.4,
                "NORMAL",
                "",
                5.01,
                "WEEK 4: UNSCHEDULED 01",
                "TREATMENT",
                "2012-12-28T09:27",
                29
            ],
            [
                "CDISCPILOT01",
                "LB",
                "CDISC001",
                111,
                "CK",
                "Creatine Kinase",
                "CHEMISTRY",
                "58",
                "U/L",
                "22",
                "198",
                "58",
                58,
                "U/L",
                22,
                198,
                "NORMAL",
                "",
                5.01,
                "WEEK 4: UNSCHEDULED 01",
                "TREATMENT",
                "2012-12-28T09:27",
                29
            ],
            [
                "CDISCPILOT01",
                "LB",
                "CDISC001",
                112,
                "CREAT",
                "Creatinine",
                "CHEMISTRY",
                "1.3",
                "mg/dL",
                "0.8",
                "1.6",
                "114.92",
                114.92,
                "umol/L",
                71,
                141,
                "NORMAL",
                "",
                5.01,
                "WEEK 4: UNSCHEDULED 01",
                "TREATMENT",
                "2012-12-28T09:27",
                29
            ],
            [
                "CDISCPILOT01",
                "LB",
                "CDISC001",
                113,
                "GGT",
                "Gamma Glutamyl Transferase",
                "CHEMISTRY",
                "34",
                "U/L",
                "10",
                "50",
                "34",
                34,
                "U/L",
                10,
                50,
                "NORMAL",
                "",
                5.01,
                "WEEK 4: UNSCHEDULED 01",
                "TREATMENT",
                "2012-12-28T09:27",
                29
            ],
            [
                "CDISCPILOT01",
                "LB",
                "CDISC001",
                114,
                "GLUC",
                "Glucose",
                "CHEMISTRY",
                "48",
                "mg/dL",
                "50",
                "250",
                "2.66448",
                2.66448,
                "mmol/L",
                2.8,
                13.9,
                "LOW",
                "",
                5.01,
                "WEEK 4: UNSCHEDULED 01",
                "TREATMENT",
                "2012-12-28T09:27",
                29
            ],
            [
                "CDISCPILOT01",
                "LB",
                "CDISC001",
                115,
                "PHOS",
                "Phosphate",
                "CHEMISTRY",
                "2.9",
                "mg/dL",
                "2.2",
                "5.1",
                "0.93641",
                0.93641,
                "mmol/L",
                0.71,
                1.65,
                "NORMAL",
                "",
                5.01,
                "WEEK 4: UNSCHEDULED 01",
                "TREATMENT",
                "2012-12-28T09:27",
                29
            ],
            [
                "CDISCPILOT01",
                "LB",
                "CDISC001",
                116,
                "PROT",
                "Protein",
                "CHEMISTRY",
                "6.9",
                "g/dL",
                "6",
                "8",
                "69",
                69,
                "g/L",
                60,
                80,
                "NORMAL",
                "",
                5.01,
                "WEEK 4: UNSCHEDULED 01",
                "TREATMENT",
                "2012-12-28T09:27",
                29
            ],
            [
                "CDISCPILOT01",
                "LB",
                "CDISC001",
                117,
                "URATE",
                "Urate",
                "CHEMISTRY",
                "4.4",
                "mg/dL",
                "2.5",
                "7.5",
                "261.712",
                261.712,
                "umol/L",
                149,
                446,
                "NORMAL",
                "",
                5.01,
                "WEEK 4: UNSCHEDULED 01",
                "TREATMENT",
                "2012-12-28T09:27",
                29
            ],
            [
                "CDISCPILOT01",
                "LB",
                "CDISC001",
                118,
                "ALB",
                "Albumin",
                "CHEMISTRY",
                "3.7",
                "g/dL",
                "3.5",
                "4.6",
                "37",
                37,
                "g/L",
                35,
                46,
                "NORMAL",
                "",
                7,
                "WEEK 6",
                "TREATMENT",
                "2013-01-10T15:20",
                42
            ],
            [
                "CDISCPILOT01",
                "LB",
                "CDISC001",
                119,
                "ALP",
                "Alkaline Phosphatase",
                "CHEMISTRY",
                "98",
                "U/L",
                "35",
                "115",
                "98",
                98,
                "U/L",
                35,
                115,
                "NORMAL",
                "",
                7,
                "WEEK 6",
                "TREATMENT",
                "2013-01-10T15:20",
                42
            ],
            [
                "CDISCPILOT01",
                "LB",
                "CDISC001",
                120,
                "ALT",
                "Alanine Aminotransferase",
                "CHEMISTRY",
                "18",
                "U/L",
                "6",
                "35",
                "18",
                18,
                "U/L",
                6,
                35,
                "NORMAL",
                "",
                7,
                "WEEK 6",
                "TREATMENT",
                "2013-01-10T15:20",
                42
            ],
            [
                "CDISCPILOT01",
                "LB",
                "CDISC001",
                121,
                "AST",
                "Aspartate Aminotransferase",
                "CHEMISTRY",
                "25",
                "U/L",
                "11",
                "36",
                "25",
                25,
                "U/L",
                11,
                36,
                "NORMAL",
                "",
                7,
                "WEEK 6",
                "TREATMENT",
                "2013-01-10T15:20",
                42
            ],
            [
                "CDISCPILOT01",
                "LB",
                "CDISC001",
                123,
                "BILI",
                "Bilirubin",
                "CHEMISTRY",
                "0.4",
                "mg/dL",
                "0.2",
                "1.2",
                "6.84",
                6.84,
                "umol/L",
                3,
                21,
                "NORMAL",
                "",
                7,
                "WEEK 6",
                "TREATMENT",
                "2013-01-10T15:20",
                42
            ],
            [
                "CDISCPILOT01",
                "LB",
                "CDISC001",
                124,
                "UREAN",
                "Urea Nitrogen",
                "CHEMISTRY",
                "25",
                "mg/dL",
                "4",
                "24",
                "8.925",
                8.925,
                "mmol/L",
                1.4,
                8.6,
                "HIGH",
                "",
                7,
                "WEEK 6",
                "TREATMENT",
                "2013-01-10T15:20",
                42
            ],
            [
                "CDISCPILOT01",
                "LB",
                "CDISC001",
                125,
                "CA",
                "Calcium",
                "CHEMISTRY",
                "9.2",
                "mg/dL",
                "8.4",
                "10.3",
                "2.2954",
                2.2954,
                "mmol/L",
                2.1,
                2.57,
                "NORMAL",
                "",
                7,
                "WEEK 6",
                "TREATMENT",
                "2013-01-10T15:20",
                42
            ],
            [
                "CDISCPILOT01",
                "LB",
                "CDISC001",
                126,
                "CHOL",
                "Cholesterol",
                "CHEMISTRY",
                "242",
                "mg/dL",
                "149",
                "286",
                "6.25812",
                6.25812,
                "mmol/L",
                3.85,
                7.4,
                "NORMAL",
                "",
                7,
                "WEEK 6",
                "TREATMENT",
                "2013-01-10T15:20",
                42
            ],
            [
                "CDISCPILOT01",
                "LB",
                "CDISC001",
                127,
                "CK",
                "Creatine Kinase",
                "CHEMISTRY",
                "78",
                "U/L",
                "22",
                "198",
                "78",
                78,
                "U/L",
                22,
                198,
                "NORMAL",
                "",
                7,
                "WEEK 6",
                "TREATMENT",
                "2013-01-10T15:20",
                42
            ],
            [
                "CDISCPILOT01",
                "LB",
                "CDISC001",
                128,
                "CL",
                "Chloride",
                "CHEMISTRY",
                "108",
                "mEq/L",
                "94",
                "112",
                "108",
                108,
                "mmol/L",
                94,
                112,
                "NORMAL",
                "",
                7,
                "WEEK 6",
                "TREATMENT",
                "2013-01-10T15:20",
                42
            ],
            [
                "CDISCPILOT01",
                "LB",
                "CDISC001",
                129,
                "CREAT",
                "Creatinine",
                "CHEMISTRY",
                "1.5",
                "mg/dL",
                "0.8",
                "1.6",
                "132.6",
                132.6,
                "umol/L",
                71,
                141,
                "NORMAL",
                "",
                7,
                "WEEK 6",
                "TREATMENT",
                "2013-01-10T15:20",
                42
            ],
            [
                "CDISCPILOT01",
                "LB",
                "CDISC001",
                131,
                "GGT",
                "Gamma Glutamyl Transferase",
                "CHEMISTRY",
                "37",
                "U/L",
                "10",
                "50",
                "37",
                37,
                "U/L",
                10,
                50,
                "NORMAL",
                "",
                7,
                "WEEK 6",
                "TREATMENT",
                "2013-01-10T15:20",
                42
            ],
            [
                "CDISCPILOT01",
                "LB",
                "CDISC001",
                132,
                "GLUC",
                "Glucose",
                "CHEMISTRY",
                "91",
                "mg/dL",
                "50",
                "250",
                "5.05141",
                5.05141,
                "mmol/L",
                2.8,
                13.9,
                "NORMAL",
                "",
                7,
                "WEEK 6",
                "TREATMENT",
                "2013-01-10T15:20",
                42
            ],
            [
                "CDISCPILOT01",
                "LB",
                "CDISC001",
                135,
                "K",
                "Potassium",
                "CHEMISTRY",
                "5.3",
                "mEq/L",
                "3.4",
                "5.4",
                "5.3",
                5.3,
                "mmol/L",
                3.4,
                5.4,
                "NORMAL",
                "",
                7,
                "WEEK 6",
                "TREATMENT",
                "2013-01-10T15:20",
                42
            ],
            [
                "CDISCPILOT01",
                "LB",
                "CDISC001",
                141,
                "SODIUM",
                "Sodium",
                "CHEMISTRY",
                "144",
                "mEq/L",
                "135",
                "145",
                "144",
                144,
                "mmol/L",
                135,
                145,
                "NORMAL",
                "",
                7,
                "WEEK 6",
                "TREATMENT",
                "2013-01-10T15:20",
                42
            ],
            [
                "CDISCPILOT01",
                "LB",
                "CDISC001",
                142,
                "PHOS",
                "Phosphate",
                "CHEMISTRY",
                "3.7",
                "mg/dL",
                "2.2",
                "5.1",
                "1.19473",
                1.19473,
                "mmol/L",
                0.71,
                1.65,
                "NORMAL",
                "",
                7,
                "WEEK 6",
                "TREATMENT",
                "2013-01-10T15:20",
                42
            ],
            [
                "CDISCPILOT01",
                "LB",
                "CDISC001",
                144,
                "PROT",
                "Protein",
                "CHEMISTRY",
                "7.0",
                "g/dL",
                "6",
                "8",
                "70",
                70,
                "g/L",
                60,
                80,
                "NORMAL",
                "",
                7,
                "WEEK 6",
                "TREATMENT",
                "2013-01-10T15:20",
                42
            ],
            [
                "CDISCPILOT01",
                "LB",
                "CDISC001",
                146,
                "URATE",
                "Urate",
                "CHEMISTRY",
                "5.2",
                "mg/dL",
                "2.5",
                "7.5",
                "309.296",
                309.296,
                "umol/L",
                149,
                446,
                "NORMAL",
                "",
                7,
                "WEEK 6",
                "TREATMENT",
                "2013-01-10T15:20",
                42
            ],
            [
                "CDISCPILOT01",
                "LB",
                "CDISC001",
                148,
                "ALB",
                "Albumin",
                "CHEMISTRY",
                "3.9",
                "g/dL",
                "3.5",
                "4.6",
                "39",
                39,
                "g/L",
                35,
                46,
                "NORMAL",
                "",
                8,
                "WEEK 8",
                "TREATMENT",
                "2013-01-23T12:13",
                55
            ],
            [
                "CDISCPILOT01",
                "LB",
                "CDISC001",
                149,
                "ALP",
                "Alkaline Phosphatase",
                "CHEMISTRY",
                "98",
                "U/L",
                "35",
                "115",
                "98",
                98,
                "U/L",
                35,
                115,
                "NORMAL",
                "",
                8,
                "WEEK 8",
                "TREATMENT",
                "2013-01-23T12:13",
                55
            ],
            [
                "CDISCPILOT01",
                "LB",
                "CDISC001",
                150,
                "ALT",
                "Alanine Aminotransferase",
                "CHEMISTRY",
                "16",
                "U/L",
                "6",
                "35",
                "16",
                16,
                "U/L",
                6,
                35,
                "NORMAL",
                "",
                8,
                "WEEK 8",
                "TREATMENT",
                "2013-01-23T12:13",
                55
            ],
            [
                "CDISCPILOT01",
                "LB",
                "CDISC001",
                151,
                "AST",
                "Aspartate Aminotransferase",
                "CHEMISTRY",
                "25",
                "U/L",
                "11",
                "36",
                "25",
                25,
                "U/L",
                11,
                36,
                "NORMAL",
                "",
                8,
                "WEEK 8",
                "TREATMENT",
                "2013-01-23T12:13",
                55
            ],
            [
                "CDISCPILOT01",
                "LB",
                "CDISC001",
                153,
                "BILI",
                "Bilirubin",
                "CHEMISTRY",
                "0.5",
                "mg/dL",
                "0.2",
                "1.2",
                "8.55",
                8.55,
                "umol/L",
                3,
                21,
                "NORMAL",
                "",
                8,
                "WEEK 8",
                "TREATMENT",
                "2013-01-23T12:13",
                55
            ],
            [
                "CDISCPILOT01",
                "LB",
                "CDISC001",
                154,
                "UREAN",
                "Urea Nitrogen",
                "CHEMISTRY",
                "22",
                "mg/dL",
                "4",
                "24",
                "7.854",
                7.854,
                "mmol/L",
                1.4,
                8.6,
                "NORMAL",
                "",
                8,
                "WEEK 8",
                "TREATMENT",
                "2013-01-23T12:13",
                55
            ],
            [
                "CDISCPILOT01",
                "LB",
                "CDISC001",
                155,
                "CA",
                "Calcium",
                "CHEMISTRY",
                "8.9",
                "mg/dL",
                "8.4",
                "10.3",
                "2.22055",
                2.22055,
                "mmol/L",
                2.1,
                2.57,
                "NORMAL",
                "",
                8,
                "WEEK 8",
                "TREATMENT",
                "2013-01-23T12:13",
                55
            ],
            [
                "CDISCPILOT01",
                "LB",
                "CDISC001",
                156,
                "CHOL",
                "Cholesterol",
                "CHEMISTRY",
                "252",
                "mg/dL",
                "149",
                "286",
                "6.51672",
                6.51672,
                "mmol/L",
                3.85,
                7.4,
                "NORMAL",
                "",
                8,
                "WEEK 8",
                "TREATMENT",
                "2013-01-23T12:13",
                55
            ],
            [
                "CDISCPILOT01",
                "LB",
                "CDISC001",
                157,
                "CK",
                "Creatine Kinase",
                "CHEMISTRY",
                "94",
                "U/L",
                "22",
                "198",
                "94",
                94,
                "U/L",
                22,
                198,
                "NORMAL",
                "",
                8,
                "WEEK 8",
                "TREATMENT",
                "2013-01-23T12:13",
                55
            ],
            [
                "CDISCPILOT01",
                "LB",
                "CDISC001",
                158,
                "CL",
                "Chloride",
                "CHEMISTRY",
                "104",
                "mEq/L",
                "94",
                "112",
                "104",
                104,
                "mmol/L",
                94,
                112,
                "NORMAL",
                "",
                8,
                "WEEK 8",
                "TREATMENT",
                "2013-01-23T12:13",
                55
            ],
            [
                "CDISCPILOT01",
                "LB",
                "CDISC001",
                160,
                "CREAT",
                "Creatinine",
                "CHEMISTRY",
                "1.3",
                "mg/dL",
                "0.8",
                "1.6",
                "114.92",
                114.92,
                "umol/L",
                71,
                141,
                "NORMAL",
                "",
                8,
                "WEEK 8",
                "TREATMENT",
                "2013-01-23T12:13",
                55
            ],
            [
                "CDISCPILOT01",
                "LB",
                "CDISC001",
                162,
                "GGT",
                "Gamma Glutamyl Transferase",
                "CHEMISTRY",
                "34",
                "U/L",
                "10",
                "50",
                "34",
                34,
                "U/L",
                10,
                50,
                "NORMAL",
                "",
                8,
                "WEEK 8",
                "TREATMENT",
                "2013-01-23T12:13",
                55
            ],
            [
                "CDISCPILOT01",
                "LB",
                "CDISC001",
                163,
                "GLUC",
                "Glucose",
                "CHEMISTRY",
                "79",
                "mg/dL",
                "50",
                "250",
                "4.38529",
                4.38529,
                "mmol/L",
                2.8,
                13.9,
                "NORMAL",
                "",
                8,
                "WEEK 8",
                "TREATMENT",
                "2013-01-23T12:13",
                55
            ],
            [
                "CDISCPILOT01",
                "LB",
                "CDISC001",
                166,
                "K",
                "Potassium",
                "CHEMISTRY",
                "4.7",
                "mEq/L",
                "3.4",
                "5.4",
                "4.7",
                4.7,
                "mmol/L",
                3.4,
                5.4,
                "NORMAL",
                "",
                8,
                "WEEK 8",
                "TREATMENT",
                "2013-01-23T12:13",
                55
            ],
            [
                "CDISCPILOT01",
                "LB",
                "CDISC001",
                173,
                "SODIUM",
                "Sodium",
                "CHEMISTRY",
                "141",
                "mEq/L",
                "135",
                "145",
                "141",
                141,
                "mmol/L",
                135,
                145,
                "NORMAL",
                "",
                8,
                "WEEK 8",
                "TREATMENT",
                "2013-01-23T12:13",
                55
            ],
            [
                "CDISCPILOT01",
                "LB",
                "CDISC001",
                175,
                "PHOS",
                "Phosphate",
                "CHEMISTRY",
                "3.4",
                "mg/dL",
                "2.2",
                "5.1",
                "1.09786",
                1.09786,
                "mmol/L",
                0.71,
                1.65,
                "NORMAL",
                "",
                8,
                "WEEK 8",
                "TREATMENT",
                "2013-01-23T12:13",
                55
            ],
            [
                "CDISCPILOT01",
                "LB",
                "CDISC001",
                177,
                "PROT",
                "Protein",
                "CHEMISTRY",
                "7.1",
                "g/dL",
                "6",
                "8",
                "71",
                71,
                "g/L",
                60,
                80,
                "NORMAL",
                "",
                8,
                "WEEK 8",
                "TREATMENT",
                "2013-01-23T12:13",
                55
            ],
            [
                "CDISCPILOT01",
                "LB",
                "CDISC001",
                180,
                "URATE",
                "Urate",
                "CHEMISTRY",
                "4.5",
                "mg/dL",
                "2.5",
                "7.5",
                "267.66",
                267.66,
                "umol/L",
                149,
                446,
                "NORMAL",
                "",
                8,
                "WEEK 8",
                "TREATMENT",
                "2013-01-23T12:13",
                55
            ],
            [
                "CDISCPILOT01",
                "LB",
                "CDISC002",
                1,
                "ALB",
                "Albumin",
                "CHEMISTRY",
                "4.2",
                "g/dL",
                "3.5",
                "4.6",
                "42",
                42,
                "g/L",
                35,
                46,
                "NORMAL",
                "Y",
                1,
                "SCREENING 1",
                "SCREENING",
                "2012-10-30T14:26",
                -16
            ],
            [
                "CDISCPILOT01",
                "LB",
                "CDISC002",
                2,
                "ALP",
                "Alkaline Phosphatase",
                "CHEMISTRY",
                "106",
                "U/L",
                "35",
                "115",
                "106",
                106,
                "U/L",
                35,
                115,
                "NORMAL",
                "Y",
                1,
                "SCREENING 1",
                "SCREENING",
                "2012-10-30T14:26",
                -16
            ],
            [
                "CDISCPILOT01",
                "LB",
                "CDISC002",
                3,
                "ALT",
                "Alanine Aminotransferase",
                "CHEMISTRY",
                "19",
                "U/L",
                "6",
                "32",
                "19",
                19,
                "U/L",
                6,
                32,
                "NORMAL",
                "Y",
                1,
                "SCREENING 1",
                "SCREENING",
                "2012-10-30T14:26",
                -16
            ],
            [
                "CDISCPILOT01",
                "LB",
                "CDISC002",
                4,
                "AST",
                "Aspartate Aminotransferase",
                "CHEMISTRY",
                "20",
                "U/L",
                "9",
                "34",
                "20",
                20,
                "U/L",
                9,
                34,
                "NORMAL",
                "Y",
                1,
                "SCREENING 1",
                "SCREENING",
                "2012-10-30T14:26",
                -16
            ],
            [
                "CDISCPILOT01",
                "LB",
                "CDISC002",
                6,
                "BILI",
                "Bilirubin",
                "CHEMISTRY",
                "1.1",
                "mg/dL",
                "0.2",
                "1.2",
                "18.81",
                18.81,
                "umol/L",
                3,
                21,
                "NORMAL",
                "Y",
                1,
                "SCREENING 1",
                "SCREENING",
                "2012-10-30T14:26",
                -16
            ],
            [
                "CDISCPILOT01",
                "LB",
                "CDISC002",
                7,
                "UREAN",
                "Urea Nitrogen",
                "CHEMISTRY",
                "18",
                "mg/dL",
                "4",
                "24",
                "6.426",
                6.426,
                "mmol/L",
                1.4,
                8.6,
                "NORMAL",
                "Y",
                1,
                "SCREENING 1",
                "SCREENING",
                "2012-10-30T14:26",
                -16
            ],
            [
                "CDISCPILOT01",
                "LB",
                "CDISC002",
                8,
                "CA",
                "Calcium",
                "CHEMISTRY",
                "9.3",
                "mg/dL",
                "8.4",
                "10.3",
                "2.32035",
                2.32035,
                "mmol/L",
                2.1,
                2.57,
                "NORMAL",
                "Y",
                1,
                "SCREENING 1",
                "SCREENING",
                "2012-10-30T14:26",
                -16
            ],
            [
                "CDISCPILOT01",
                "LB",
                "CDISC002",
                9,
                "CHOL",
                "Cholesterol",
                "CHEMISTRY",
                "191",
                "mg/dL",
                "156",
                "300",
                "4.93926",
                4.93926,
                "mmol/L",
                4.03,
                7.76,
                "NORMAL",
                "Y",
                1,
                "SCREENING 1",
                "SCREENING",
                "2012-10-30T14:26",
                -16
            ],
            [
                "CDISCPILOT01",
                "LB",
                "CDISC002",
                10,
                "CK",
                "Creatine Kinase",
                "CHEMISTRY",
                "91",
                "U/L",
                "21",
                "169",
                "91",
                91,
                "U/L",
                21,
                169,
                "NORMAL",
                "Y",
                1,
                "SCREENING 1",
                "SCREENING",
                "2012-10-30T14:26",
                -16
            ],
            [
                "CDISCPILOT01",
                "LB",
                "CDISC002",
                11,
                "CL",
                "Chloride",
                "CHEMISTRY",
                "100",
                "mEq/L",
                "94",
                "112",
                "100",
                100,
                "mmol/L",
                94,
                112,
                "NORMAL",
                "Y",
                1,
                "SCREENING 1",
                "SCREENING",
                "2012-10-30T14:26",
                -16
            ],
            [
                "CDISCPILOT01",
                "LB",
                "CDISC002",
                13,
                "CREAT",
                "Creatinine",
                "CHEMISTRY",
                "1.1",
                "mg/dL",
                "0.7",
                "1.4",
                "97.24",
                97.24,
                "umol/L",
                62,
                124,
                "NORMAL",
                "Y",
                1,
                "SCREENING 1",
                "SCREENING",
                "2012-10-30T14:26",
                -16
            ],
            [
                "CDISCPILOT01",
                "LB",
                "CDISC002",
                15,
                "GGT",
                "Gamma Glutamyl Transferase",
                "CHEMISTRY",
                "22",
                "U/L",
                "5",
                "50",
                "22",
                22,
                "U/L",
                5,
                50,
                "NORMAL",
                "Y",
                1,
                "SCREENING 1",
                "SCREENING",
                "2012-10-30T14:26",
                -16
            ],
            [
                "CDISCPILOT01",
                "LB",
                "CDISC002",
                16,
                "GLUC",
                "Glucose",
                "CHEMISTRY",
                "91",
                "mg/dL",
                "50",
                "250",
                "5.05141",
                5.05141,
                "mmol/L",
                2.8,
                13.9,
                "NORMAL",
                "Y",
                1,
                "SCREENING 1",
                "SCREENING",
                "2012-10-30T14:26",
                -16
            ],
            [
                "CDISCPILOT01",
                "LB",
                "CDISC002",
                19,
                "K",
                "Potassium",
                "CHEMISTRY",
                "3.9",
                "mEq/L",
                "3.4",
                "5.4",
                "3.9",
                3.9,
                "mmol/L",
                3.4,
                5.4,
                "NORMAL",
                "Y",
                1,
                "SCREENING 1",
                "SCREENING",
                "2012-10-30T14:26",
                -16
            ],
            [
                "CDISCPILOT01",
                "LB",
                "CDISC002",
                26,
                "SODIUM",
                "Sodium",
                "CHEMISTRY",
                "133",
                "mEq/L",
                "135",
                "145",
                "133",
                133,
                "mmol/L",
                135,
                145,
                "LOW",
                "Y",
                1,
                "SCREENING 1",
                "SCREENING",
                "2012-10-30T14:26",
                -16
            ],
            [
                "CDISCPILOT01",
                "LB",
                "CDISC002",
                28,
                "PHOS",
                "Phosphate",
                "CHEMISTRY",
                "3.7",
                "mg/dL",
                "2.2",
                "5.1",
                "1.19473",
                1.19473,
                "mmol/L",
                0.71,
                1.65,
                "NORMAL",
                "Y",
                1,
                "SCREENING 1",
                "SCREENING",
                "2012-10-30T14:26",
                -16
            ],
            [
                "CDISCPILOT01",
                "LB",
                "CDISC002",
                30,
                "PROT",
                "Protein",
                "CHEMISTRY",
                "7.6",
                "g/dL",
                "6",
                "8",
                "76",
                76,
                "g/L",
                60,
                80,
                "NORMAL",
                "Y",
                1,
                "SCREENING 1",
                "SCREENING",
                "2012-10-30T14:26",
                -16
            ],
            [
                "CDISCPILOT01",
                "LB",
                "CDISC002",
                34,
                "URATE",
                "Urate",
                "CHEMISTRY",
                "4.6",
                "mg/dL",
                "2.5",
                "7.5",
                "273.608",
                273.608,
                "umol/L",
                149,
                446,
                "NORMAL",
                "Y",
                1,
                "SCREENING 1",
                "SCREENING",
                "2012-10-30T14:26",
                -16
            ],
            [
                "CDISCPILOT01",
                "LB",
                "CDISC002",
                38,
                "ALB",
                "Albumin",
                "CHEMISTRY",
                "3.4",
                "g/dL",
                "3.5",
                "4.6",
                "34",
                34,
                "g/L",
                35,
                46,
                "LOW",
                "",
                4,
                "WEEK 2",
                "TREATMENT",
                "2012-11-28T10:00",
                14
            ],
            [
                "CDISCPILOT01",
                "LB",
                "CDISC002",
                39,
                "ALP",
                "Alkaline Phosphatase",
                "CHEMISTRY",
                "103",
                "U/L",
                "35",
                "115",
                "103",
                103,
                "U/L",
                35,
                115,
                "NORMAL",
                "",
                4,
                "WEEK 2",
                "TREATMENT",
                "2012-11-28T10:00",
                14
            ],
            [
                "CDISCPILOT01",
                "LB",
                "CDISC002",
                40,
                "ALT",
                "Alanine Aminotransferase",
                "CHEMISTRY",
                "19",
                "U/L",
                "6",
                "32",
                "19",
                19,
                "U/L",
                6,
                32,
                "NORMAL",
                "",
                4,
                "WEEK 2",
                "TREATMENT",
                "2012-11-28T10:00",
                14
            ],
            [
                "CDISCPILOT01",
                "LB",
                "CDISC002",
                41,
                "AST",
                "Aspartate Aminotransferase",
                "CHEMISTRY",
                "10",
                "U/L",
                "9",
                "34",
                "10",
                10,
                "U/L",
                9,
                34,
                "NORMAL",
                "",
                4,
                "WEEK 2",
                "TREATMENT",
                "2012-11-28T10:00",
                14
            ],
            [
                "CDISCPILOT01",
                "LB",
                "CDISC002",
                43,
                "BILI",
                "Bilirubin",
                "CHEMISTRY",
                "1.5",
                "mg/dL",
                "0.2",
                "1.2",
                "25.65",
                25.65,
                "umol/L",
                3,
                21,
                "HIGH",
                "",
                4,
                "WEEK 2",
                "TREATMENT",
                "2012-11-28T10:00",
                14
            ],
            [
                "CDISCPILOT01",
                "LB",
                "CDISC002",
                44,
                "UREAN",
                "Urea Nitrogen",
                "CHEMISTRY",
                "27",
                "mg/dL",
                "4",
                "24",
                "9.639",
                9.639,
                "mmol/L",
                1.4,
                8.6,
                "HIGH",
                "",
                4,
                "WEEK 2",
                "TREATMENT",
                "2012-11-28T10:00",
                14
            ],
            [
                "CDISCPILOT01",
                "LB",
                "CDISC002",
                45,
                "CA",
                "Calcium",
                "CHEMISTRY",
                "8.6",
                "mg/dL",
                "8.4",
                "10.3",
                "2.1457",
                2.1457,
                "mmol/L",
                2.1,
                2.57,
                "NORMAL",
                "",
                4,
                "WEEK 2",
                "TREATMENT",
                "2012-11-28T10:00",
                14
            ],
            [
                "CDISCPILOT01",
                "LB",
                "CDISC002",
                46,
                "CHOL",
                "Cholesterol",
                "CHEMISTRY",
                "167",
                "mg/dL",
                "156",
                "300",
                "4.31862",
                4.31862,
                "mmol/L",
                4.03,
                7.76,
                "NORMAL",
                "",
                4,
                "WEEK 2",
                "TREATMENT",
                "2012-11-28T10:00",
                14
            ],
            [
                "CDISCPILOT01",
                "LB",
                "CDISC002",
                47,
                "CK",
                "Creatine Kinase",
                "CHEMISTRY",
                "114",
                "U/L",
                "21",
                "169",
                "114",
                114,
                "U/L",
                21,
                169,
                "NORMAL",
                "",
                4,
                "WEEK 2",
                "TREATMENT",
                "2012-11-28T10:00",
                14
            ],
            [
                "CDISCPILOT01",
                "LB",
                "CDISC002",
                48,
                "CL",
                "Chloride",
                "CHEMISTRY",
                "97",
                "mEq/L",
                "94",
                "112",
                "97",
                97,
                "mmol/L",
                94,
                112,
                "NORMAL",
                "",
                4,
                "WEEK 2",
                "TREATMENT",
                "2012-11-28T10:00",
                14
            ],
            [
                "CDISCPILOT01",
                "LB",
                "CDISC002",
                50,
                "CREAT",
                "Creatinine",
                "CHEMISTRY",
                "1.2",
                "mg/dL",
                "0.7",
                "1.4",
                "106.08",
                106.08,
                "umol/L",
                62,
                124,
                "NORMAL",
                "",
                4,
                "WEEK 2",
                "TREATMENT",
                "2012-11-28T10:00",
                14
            ],
            [
                "CDISCPILOT01",
                "LB",
                "CDISC002",
                52,
                "GGT",
                "Gamma Glutamyl Transferase",
                "CHEMISTRY",
                "25",
                "U/L",
                "5",
                "50",
                "25",
                25,
                "U/L",
                5,
                50,
                "NORMAL",
                "",
                4,
                "WEEK 2",
                "TREATMENT",
                "2012-11-28T10:00",
                14
            ],
            [
                "CDISCPILOT01",
                "LB",
                "CDISC002",
                53,
                "GLUC",
                "Glucose",
                "CHEMISTRY",
                "72",
                "mg/dL",
                "50",
                "250",
                "3.99672",
                3.99672,
                "mmol/L",
                2.8,
                13.9,
                "NORMAL",
                "",
                4,
                "WEEK 2",
                "TREATMENT",
                "2012-11-28T10:00",
                14
            ],
            [
                "CDISCPILOT01",
                "LB",
                "CDISC002",
                56,
                "K",
                "Potassium",
                "CHEMISTRY",
                "3.6",
                "mEq/L",
                "3.4",
                "5.4",
                "3.6",
                3.6,
                "mmol/L",
                3.4,
                5.4,
                "NORMAL",
                "",
                4,
                "WEEK 2",
                "TREATMENT",
                "2012-11-28T10:00",
                14
            ],
            [
                "CDISCPILOT01",
                "LB",
                "CDISC002",
                63,
                "SODIUM",
                "Sodium",
                "CHEMISTRY",
                "137",
                "mEq/L",
                "135",
                "145",
                "137",
                137,
                "mmol/L",
                135,
                145,
                "NORMAL",
                "",
                4,
                "WEEK 2",
                "TREATMENT",
                "2012-11-28T10:00",
                14
            ],
            [
                "CDISCPILOT01",
                "LB",
                "CDISC002",
                65,
                "PHOS",
                "Phosphate",
                "CHEMISTRY",
                "4.1",
                "mg/dL",
                "2.2",
                "5.1",
                "1.32389",
                1.32389,
                "mmol/L",
                0.71,
                1.65,
                "NORMAL",
                "",
                4,
                "WEEK 2",
                "TREATMENT",
                "2012-11-28T10:00",
                14
            ],
            [
                "CDISCPILOT01",
                "LB",
                "CDISC002",
                67,
                "PROT",
                "Protein",
                "CHEMISTRY",
                "6.6",
                "g/dL",
                "6",
                "8",
                "66",
                66,
                "g/L",
                60,
                80,
                "NORMAL",
                "",
                4,
                "WEEK 2",
                "TREATMENT",
                "2012-11-28T10:00",
                14
            ],
            [
                "CDISCPILOT01",
                "LB",
                "CDISC002",
                70,
                "URATE",
                "Urate",
                "CHEMISTRY",
                "5.0",
                "mg/dL",
                "2.5",
                "7.5",
                "297.4",
                297.4,
                "umol/L",
                149,
                446,
                "NORMAL",
                "",
                4,
                "WEEK 2",
                "TREATMENT",
                "2012-11-28T10:00",
                14
            ],
            [
                "CDISCPILOT01",
                "LB",
                "CDISC002",
                73,
                "ALB",
                "Albumin",
                "CHEMISTRY",
                "3.6",
                "g/dL",
                "3.5",
                "4.6",
                "36",
                36,
                "g/L",
                35,
                46,
                "NORMAL",
                "",
                5,
                "WEEK 4",
                "TREATMENT",
                "2012-12-11T12:16",
                27
            ],
            [
                "CDISCPILOT01",
                "LB",
                "CDISC002",
                74,
                "ALP",
                "Alkaline Phosphatase",
                "CHEMISTRY",
                "136",
                "U/L",
                "35",
                "115",
                "136",
                136,
                "U/L",
                35,
                115,
                "HIGH",
                "",
                5,
                "WEEK 4",
                "TREATMENT",
                "2012-12-11T12:16",
                27
            ],
            [
                "CDISCPILOT01",
                "LB",
                "CDISC002",
                75,
                "ALT",
                "Alanine Aminotransferase",
                "CHEMISTRY",
                "14",
                "U/L",
                "6",
                "32",
                "14",
                14,
                "U/L",
                6,
                32,
                "NORMAL",
                "",
                5,
                "WEEK 4",
                "TREATMENT",
                "2012-12-11T12:16",
                27
            ],
            [
                "CDISCPILOT01",
                "LB",
                "CDISC002",
                76,
                "AST",
                "Aspartate Aminotransferase",
                "CHEMISTRY",
                "15",
                "U/L",
                "9",
                "34",
                "15",
                15,
                "U/L",
                9,
                34,
                "NORMAL",
                "",
                5,
                "WEEK 4",
                "TREATMENT",
                "2012-12-11T12:16",
                27
            ],
            [
                "CDISCPILOT01",
                "LB",
                "CDISC002",
                78,
                "BILI",
                "Bilirubin",
                "CHEMISTRY",
                "0.9",
                "mg/dL",
                "0.2",
                "1.2",
                "15.39",
                15.39,
                "umol/L",
                3,
                21,
                "NORMAL",
                "",
                5,
                "WEEK 4",
                "TREATMENT",
                "2012-12-11T12:16",
                27
            ],
            [
                "CDISCPILOT01",
                "LB",
                "CDISC002",
                79,
                "UREAN",
                "Urea Nitrogen",
                "CHEMISTRY",
                "21",
                "mg/dL",
                "4",
                "24",
                "7.497",
                7.497,
                "mmol/L",
                1.4,
                8.6,
                "NORMAL",
                "",
                5,
                "WEEK 4",
                "TREATMENT",
                "2012-12-11T12:16",
                27
            ],
            [
                "CDISCPILOT01",
                "LB",
                "CDISC002",
                80,
                "CA",
                "Calcium",
                "CHEMISTRY",
                "9.0",
                "mg/dL",
                "8.4",
                "10.3",
                "2.2455",
                2.2455,
                "mmol/L",
                2.1,
                2.57,
                "NORMAL",
                "",
                5,
                "WEEK 4",
                "TREATMENT",
                "2012-12-11T12:16",
                27
            ],
            [
                "CDISCPILOT01",
                "LB",
                "CDISC002",
                81,
                "CHOL",
                "Cholesterol",
                "CHEMISTRY",
                "205",
                "mg/dL",
                "156",
                "300",
                "5.3013",
                5.3013,
                "mmol/L",
                4.03,
                7.76,
                "NORMAL",
                "",
                5,
                "WEEK 4",
                "TREATMENT",
                "2012-12-11T12:16",
                27
            ],
            [
                "CDISCPILOT01",
                "LB",
                "CDISC002",
                82,
                "CK",
                "Creatine Kinase",
                "CHEMISTRY",
                "61",
                "U/L",
                "21",
                "169",
                "61",
                61,
                "U/L",
                21,
                169,
                "NORMAL",
                "",
                5,
                "WEEK 4",
                "TREATMENT",
                "2012-12-11T12:16",
                27
            ],
            [
                "CDISCPILOT01",
                "LB",
                "CDISC002",
                83,
                "CL",
                "Chloride",
                "CHEMISTRY",
                "101",
                "mEq/L",
                "94",
                "112",
                "101",
                101,
                "mmol/L",
                94,
                112,
                "NORMAL",
                "",
                5,
                "WEEK 4",
                "TREATMENT",
                "2012-12-11T12:16",
                27
            ],
            [
                "CDISCPILOT01",
                "LB",
                "CDISC002",
                84,
                "CREAT",
                "Creatinine",
                "CHEMISTRY",
                "1.1",
                "mg/dL",
                "0.7",
                "1.4",
                "97.24",
                97.24,
                "umol/L",
                62,
                124,
                "NORMAL",
                "",
                5,
                "WEEK 4",
                "TREATMENT",
                "2012-12-11T12:16",
                27
            ],
            [
                "CDISCPILOT01",
                "LB",
                "CDISC002",
                86,
                "GGT",
                "Gamma Glutamyl Transferase",
                "CHEMISTRY",
                "20",
                "U/L",
                "5",
                "50",
                "20",
                20,
                "U/L",
                5,
                50,
                "NORMAL",
                "",
                5,
                "WEEK 4",
                "TREATMENT",
                "2012-12-11T12:16",
                27
            ],
            [
                "CDISCPILOT01",
                "LB",
                "CDISC002",
                87,
                "GLUC",
                "Glucose",
                "CHEMISTRY",
                "73",
                "mg/dL",
                "50",
                "250",
                "4.05223",
                4.05223,
                "mmol/L",
                2.8,
                13.9,
                "NORMAL",
                "",
                5,
                "WEEK 4",
                "TREATMENT",
                "2012-12-11T12:16",
                27
            ],
            [
                "CDISCPILOT01",
                "LB",
                "CDISC002",
                90,
                "K",
                "Potassium",
                "CHEMISTRY",
                "4.2",
                "mEq/L",
                "3.4",
                "5.4",
                "4.2",
                4.2,
                "mmol/L",
                3.4,
                5.4,
                "NORMAL",
                "",
                5,
                "WEEK 4",
                "TREATMENT",
                "2012-12-11T12:16",
                27
            ],
            [
                "CDISCPILOT01",
                "LB",
                "CDISC002",
                96,
                "SODIUM",
                "Sodium",
                "CHEMISTRY",
                "133",
                "mEq/L",
                "135",
                "145",
                "133",
                133,
                "mmol/L",
                135,
                145,
                "LOW",
                "",
                5,
                "WEEK 4",
                "TREATMENT",
                "2012-12-11T12:16",
                27
            ],
            [
                "CDISCPILOT01",
                "LB",
                "CDISC002",
                97,
                "PHOS",
                "Phosphate",
                "CHEMISTRY",
                "3.4",
                "mg/dL",
                "2.2",
                "5.1",
                "1.09786",
                1.09786,
                "mmol/L",
                0.71,
                1.65,
                "NORMAL",
                "",
                5,
                "WEEK 4",
                "TREATMENT",
                "2012-12-11T12:16",
                27
            ],
            [
                "CDISCPILOT01",
                "LB",
                "CDISC002",
                99,
                "PROT",
                "Protein",
                "CHEMISTRY",
                "6.7",
                "g/dL",
                "6",
                "8",
                "67",
                67,
                "g/L",
                60,
                80,
                "NORMAL",
                "",
                5,
                "WEEK 4",
                "TREATMENT",
                "2012-12-11T12:16",
                27
            ],
            [
                "CDISCPILOT01",
                "LB",
                "CDISC002",
                101,
                "URATE",
                "Urate",
                "CHEMISTRY",
                "3.9",
                "mg/dL",
                "2.5",
                "7.5",
                "231.972",
                231.972,
                "umol/L",
                149,
                446,
                "NORMAL",
                "",
                5,
                "WEEK 4",
                "TREATMENT",
                "2012-12-11T12:16",
                27
            ],
            [
                "CDISCPILOT01",
                "LB",
                "CDISC002",
                103,
                "ALB",
                "Albumin",
                "CHEMISTRY",
                "3.3",
                "g/dL",
                "3.5",
                "4.6",
                "33",
                33,
                "g/L",
                35,
                46,
                "LOW",
                "",
                7,
                "WEEK 6",
                "TREATMENT",
                "2012-12-25T14:00",
                41
            ],
            [
                "CDISCPILOT01",
                "LB",
                "CDISC002",
                104,
                "ALP",
                "Alkaline Phosphatase",
                "CHEMISTRY",
                "132",
                "U/L",
                "35",
                "115",
                "132",
                132,
                "U/L",
                35,
                115,
                "HIGH",
                "",
                7,
                "WEEK 6",
                "TREATMENT",
                "2012-12-25T14:00",
                41
            ],
            [
                "CDISCPILOT01",
                "LB",
                "CDISC002",
                105,
                "ALT",
                "Alanine Aminotransferase",
                "CHEMISTRY",
                "15",
                "U/L",
                "6",
                "32",
                "15",
                15,
                "U/L",
                6,
                32,
                "NORMAL",
                "",
                7,
                "WEEK 6",
                "TREATMENT",
                "2012-12-25T14:00",
                41
            ],
            [
                "CDISCPILOT01",
                "LB",
                "CDISC002",
                106,
                "AST",
                "Aspartate Aminotransferase",
                "CHEMISTRY",
                "15",
                "U/L",
                "9",
                "34",
                "15",
                15,
                "U/L",
                9,
                34,
                "NORMAL",
                "",
                7,
                "WEEK 6",
                "TREATMENT",
                "2012-12-25T14:00",
                41
            ],
            [
                "CDISCPILOT01",
                "LB",
                "CDISC002",
                108,
                "BILI",
                "Bilirubin",
                "CHEMISTRY",
                "0.9",
                "mg/dL",
                "0.2",
                "1.2",
                "15.39",
                15.39,
                "umol/L",
                3,
                21,
                "NORMAL",
                "",
                7,
                "WEEK 6",
                "TREATMENT",
                "2012-12-25T14:00",
                41
            ],
            [
                "CDISCPILOT01",
                "LB",
                "CDISC002",
                109,
                "UREAN",
                "Urea Nitrogen",
                "CHEMISTRY",
                "24",
                "mg/dL",
                "4",
                "24",
                "8.568",
                8.568,
                "mmol/L",
                1.4,
                8.6,
                "NORMAL",
                "",
                7,
                "WEEK 6",
                "TREATMENT",
                "2012-12-25T14:00",
                41
            ],
            [
                "CDISCPILOT01",
                "LB",
                "CDISC002",
                110,
                "CA",
                "Calcium",
                "CHEMISTRY",
                "8.6",
                "mg/dL",
                "8.4",
                "10.3",
                "2.1457",
                2.1457,
                "mmol/L",
                2.1,
                2.57,
                "NORMAL",
                "",
                7,
                "WEEK 6",
                "TREATMENT",
                "2012-12-25T14:00",
                41
            ],
            [
                "CDISCPILOT01",
                "LB",
                "CDISC002",
                111,
                "CHOL",
                "Cholesterol",
                "CHEMISTRY",
                "170",
                "mg/dL",
                "156",
                "300",
                "4.3962",
                4.3962,
                "mmol/L",
                4.03,
                7.76,
                "NORMAL",
                "",
                7,
                "WEEK 6",
                "TREATMENT",
                "2012-12-25T14:00",
                41
            ],
            [
                "CDISCPILOT01",
                "LB",
                "CDISC002",
                112,
                "CK",
                "Creatine Kinase",
                "CHEMISTRY",
                "39",
                "U/L",
                "21",
                "169",
                "39",
                39,
                "U/L",
                21,
                169,
                "NORMAL",
                "",
                7,
                "WEEK 6",
                "TREATMENT",
                "2012-12-25T14:00",
                41
            ],
            [
                "CDISCPILOT01",
                "LB",
                "CDISC002",
                113,
                "CL",
                "Chloride",
                "CHEMISTRY",
                "103",
                "mEq/L",
                "94",
                "112",
                "103",
                103,
                "mmol/L",
                94,
                112,
                "NORMAL",
                "",
                7,
                "WEEK 6",
                "TREATMENT",
                "2012-12-25T14:00",
                41
            ],
            [
                "CDISCPILOT01",
                "LB",
                "CDISC002",
                114,
                "CREAT",
                "Creatinine",
                "CHEMISTRY",
                "1.1",
                "mg/dL",
                "0.7",
                "1.4",
                "97.24",
                97.24,
                "umol/L",
                62,
                124,
                "NORMAL",
                "",
                7,
                "WEEK 6",
                "TREATMENT",
                "2012-12-25T14:00",
                41
            ],
            [
                "CDISCPILOT01",
                "LB",
                "CDISC002",
                116,
                "GGT",
                "Gamma Glutamyl Transferase",
                "CHEMISTRY",
                "25",
                "U/L",
                "5",
                "50",
                "25",
                25,
                "U/L",
                5,
                50,
                "NORMAL",
                "",
                7,
                "WEEK 6",
                "TREATMENT",
                "2012-12-25T14:00",
                41
            ],
            [
                "CDISCPILOT01",
                "LB",
                "CDISC002",
                117,
                "GLUC",
                "Glucose",
                "CHEMISTRY",
                "80",
                "mg/dL",
                "50",
                "250",
                "4.4408",
                4.4408,
                "mmol/L",
                2.8,
                13.9,
                "NORMAL",
                "",
                7,
                "WEEK 6",
                "TREATMENT",
                "2012-12-25T14:00",
                41
            ],
            [
                "CDISCPILOT01",
                "LB",
                "CDISC002",
                120,
                "K",
                "Potassium",
                "CHEMISTRY",
                "4.3",
                "mEq/L",
                "3.4",
                "5.4",
                "4.3",
                4.3,
                "mmol/L",
                3.4,
                5.4,
                "NORMAL",
                "",
                7,
                "WEEK 6",
                "TREATMENT",
                "2012-12-25T14:00",
                41
            ],
            [
                "CDISCPILOT01",
                "LB",
                "CDISC002",
                126,
                "SODIUM",
                "Sodium",
                "CHEMISTRY",
                "135",
                "mEq/L",
                "135",
                "145",
                "135",
                135,
                "mmol/L",
                135,
                145,
                "NORMAL",
                "",
                7,
                "WEEK 6",
                "TREATMENT",
                "2012-12-25T14:00",
                41
            ],
            [
                "CDISCPILOT01",
                "LB",
                "CDISC002",
                127,
                "PHOS",
                "Phosphate",
                "CHEMISTRY",
                "4.0",
                "mg/dL",
                "2.2",
                "5.1",
                "1.2916",
                1.2916,
                "mmol/L",
                0.71,
                1.65,
                "NORMAL",
                "",
                7,
                "WEEK 6",
                "TREATMENT",
                "2012-12-25T14:00",
                41
            ],
            [
                "CDISCPILOT01",
                "LB",
                "CDISC002",
                129,
                "PROT",
                "Protein",
                "CHEMISTRY",
                "6.2",
                "g/dL",
                "6",
                "8",
                "62",
                62,
                "g/L",
                60,
                80,
                "NORMAL",
                "",
                7,
                "WEEK 6",
                "TREATMENT",
                "2012-12-25T14:00",
                41
            ],
            [
                "CDISCPILOT01",
                "LB",
                "CDISC002",
                131,
                "URATE",
                "Urate",
                "CHEMISTRY",
                "4.7",
                "mg/dL",
                "2.5",
                "7.5",
                "279.556",
                279.556,
                "umol/L",
                149,
                446,
                "NORMAL",
                "",
                7,
                "WEEK 6",
                "TREATMENT",
                "2012-12-25T14:00",
                41
            ],
            [
                "CDISCPILOT01",
                "LB",
                "CDISC002",
                133,
                "ALB",
                "Albumin",
                "CHEMISTRY",
                "3.3",
                "g/dL",
                "3.5",
                "4.6",
                "33",
                33,
                "g/L",
                35,
                46,
                "LOW",
                "",
                8,
                "WEEK 8",
                "TREATMENT",
                "2013-01-08T12:13",
                55
            ],
            [
                "CDISCPILOT01",
                "LB",
                "CDISC002",
                134,
                "ALP",
                "Alkaline Phosphatase",
                "CHEMISTRY",
                "183",
                "U/L",
                "35",
                "115",
                "183",
                183,
                "U/L",
                35,
                115,
                "HIGH",
                "",
                8,
                "WEEK 8",
                "TREATMENT",
                "2013-01-08T12:13",
                55
            ],
            [
                "CDISCPILOT01",
                "LB",
                "CDISC002",
                135,
                "ALT",
                "Alanine Aminotransferase",
                "CHEMISTRY",
                "21",
                "U/L",
                "6",
                "32",
                "21",
                21,
                "U/L",
                6,
                32,
                "NORMAL",
                "",
                8,
                "WEEK 8",
                "TREATMENT",
                "2013-01-08T12:13",
                55
            ],
            [
                "CDISCPILOT01",
                "LB",
                "CDISC002",
                136,
                "AST",
                "Aspartate Aminotransferase",
                "CHEMISTRY",
                "17",
                "U/L",
                "9",
                "34",
                "17",
                17,
                "U/L",
                9,
                34,
                "NORMAL",
                "",
                8,
                "WEEK 8",
                "TREATMENT",
                "2013-01-08T12:13",
                55
            ],
            [
                "CDISCPILOT01",
                "LB",
                "CDISC002",
                138,
                "BILI",
                "Bilirubin",
                "CHEMISTRY",
                "1.4",
                "mg/dL",
                "0.2",
                "1.2",
                "23.94",
                23.94,
                "umol/L",
                3,
                21,
                "HIGH",
                "",
                8,
                "WEEK 8",
                "TREATMENT",
                "2013-01-08T12:13",
                55
            ],
            [
                "CDISCPILOT01",
                "LB",
                "CDISC002",
                139,
                "UREAN",
                "Urea Nitrogen",
                "CHEMISTRY",
                "24",
                "mg/dL",
                "4",
                "24",
                "8.568",
                8.568,
                "mmol/L",
                1.4,
                8.6,
                "NORMAL",
                "",
                8,
                "WEEK 8",
                "TREATMENT",
                "2013-01-08T12:13",
                55
            ],
            [
                "CDISCPILOT01",
                "LB",
                "CDISC002",
                140,
                "CA",
                "Calcium",
                "CHEMISTRY",
                "9.0",
                "mg/dL",
                "8.4",
                "10.3",
                "2.2455",
                2.2455,
                "mmol/L",
                2.1,
                2.57,
                "NORMAL",
                "",
                8,
                "WEEK 8",
                "TREATMENT",
                "2013-01-08T12:13",
                55
            ],
            [
                "CDISCPILOT01",
                "LB",
                "CDISC002",
                141,
                "CHOL",
                "Cholesterol",
                "CHEMISTRY",
                "162",
                "mg/dL",
                "156",
                "300",
                "4.18932",
                4.18932,
                "mmol/L",
                4.03,
                7.76,
                "NORMAL",
                "",
                8,
                "WEEK 8",
                "TREATMENT",
                "2013-01-08T12:13",
                55
            ],
            [
                "CDISCPILOT01",
                "LB",
                "CDISC002",
                142,
                "CK",
                "Creatine Kinase",
                "CHEMISTRY",
                "27",
                "U/L",
                "21",
                "169",
                "27",
                27,
                "U/L",
                21,
                169,
                "NORMAL",
                "",
                8,
                "WEEK 8",
                "TREATMENT",
                "2013-01-08T12:13",
                55
            ],
            [
                "CDISCPILOT01",
                "LB",
                "CDISC002",
                143,
                "CL",
                "Chloride",
                "CHEMISTRY",
                "101",
                "mEq/L",
                "94",
                "112",
                "101",
                101,
                "mmol/L",
                94,
                112,
                "NORMAL",
                "",
                8,
                "WEEK 8",
                "TREATMENT",
                "2013-01-08T12:13",
                55
            ],
            [
                "CDISCPILOT01",
                "LB",
                "CDISC002",
                144,
                "CREAT",
                "Creatinine",
                "CHEMISTRY",
                "1.3",
                "mg/dL",
                "0.7",
                "1.4",
                "114.92",
                114.92,
                "umol/L",
                62,
                124,
                "NORMAL",
                "",
                8,
                "WEEK 8",
                "TREATMENT",
                "2013-01-08T12:13",
                55
            ],
            [
                "CDISCPILOT01",
                "LB",
                "CDISC002",
                146,
                "GGT",
                "Gamma Glutamyl Transferase",
                "CHEMISTRY",
                "65",
                "U/L",
                "5",
                "50",
                "65",
                65,
                "U/L",
                5,
                50,
                "HIGH",
                "",
                8,
                "WEEK 8",
                "TREATMENT",
                "2013-01-08T12:13",
                55
            ],
            [
                "CDISCPILOT01",
                "LB",
                "CDISC002",
                147,
                "GLUC",
                "Glucose",
                "CHEMISTRY",
                "100",
                "mg/dL",
                "50",
                "250",
                "5.551",
                5.551,
                "mmol/L",
                2.8,
                13.9,
                "NORMAL",
                "",
                8,
                "WEEK 8",
                "TREATMENT",
                "2013-01-08T12:13",
                55
            ],
            [
                "CDISCPILOT01",
                "LB",
                "CDISC002",
                150,
                "K",
                "Potassium",
                "CHEMISTRY",
                "3.6",
                "mEq/L",
                "3.4",
                "5.4",
                "3.6",
                3.6,
                "mmol/L",
                3.4,
                5.4,
                "NORMAL",
                "",
                8,
                "WEEK 8",
                "TREATMENT",
                "2013-01-08T12:13",
                55
            ],
            [
                "CDISCPILOT01",
                "LB",
                "CDISC002",
                156,
                "SODIUM",
                "Sodium",
                "CHEMISTRY",
                "142",
                "mEq/L",
                "135",
                "145",
                "142",
                142,
                "mmol/L",
                135,
                145,
                "NORMAL",
                "",
                8,
                "WEEK 8",
                "TREATMENT",
                "2013-01-08T12:13",
                55
            ],
            [
                "CDISCPILOT01",
                "LB",
                "CDISC002",
                157,
                "PHOS",
                "Phosphate",
                "CHEMISTRY",
                "3.3",
                "mg/dL",
                "2.2",
                "5.1",
                "1.06557",
                1.06557,
                "mmol/L",
                0.71,
                1.65,
                "NORMAL",
                "",
                8,
                "WEEK 8",
                "TREATMENT",
                "2013-01-08T12:13",
                55
            ],
            [
                "CDISCPILOT01",
                "LB",
                "CDISC002",
                159,
                "PROT",
                "Protein",
                "CHEMISTRY",
                "7.1",
                "g/dL",
                "6",
                "8",
                "71",
                71,
                "g/L",
                60,
                80,
                "NORMAL",
                "",
                8,
                "WEEK 8",
                "TREATMENT",
                "2013-01-08T12:13",
                55
            ],
            [
                "CDISCPILOT01",
                "LB",
                "CDISC002",
                161,
                "URATE",
                "Urate",
                "CHEMISTRY",
                "4.0",
                "mg/dL",
                "2.5",
                "7.5",
                "237.92",
                237.92,
                "umol/L",
                149,
                446,
                "NORMAL",
                "",
                8,
                "WEEK 8",
                "TREATMENT",
                "2013-01-08T12:13",
                55
            ],
            [
                "CDISCPILOT01",
                "LB",
                "CDISC003",
                1,
                "ALB",
                "Albumin",
                "CHEMISTRY",
                "4.3",
                "g/dL",
                "3.3",
                "4.9",
                "43",
                43,
                "g/L",
                33,
                49,
                "NORMAL",
                "Y",
                1,
                "SCREENING 1",
                "SCREENING",
                "2013-08-20T12:27",
                -9
            ],
            [
                "CDISCPILOT01",
                "LB",
                "CDISC003",
                2,
                "ALP",
                "Alkaline Phosphatase",
                "CHEMISTRY",
                "67",
                "U/L",
                "35",
                "115",
                "67",
                67,
                "U/L",
                35,
                115,
                "NORMAL",
                "Y",
                1,
                "SCREENING 1",
                "SCREENING",
                "2013-08-20T12:27",
                -9
            ],
            [
                "CDISCPILOT01",
                "LB",
                "CDISC003",
                3,
                "ALT",
                "Alanine Aminotransferase",
                "CHEMISTRY",
                "62",
                "U/L",
                "6",
                "43",
                "62",
                62,
                "U/L",
                6,
                43,
                "HIGH",
                "Y",
                1,
                "SCREENING 1",
                "SCREENING",
                "2013-08-20T12:27",
                -9
            ],
            [
                "CDISCPILOT01",
                "LB",
                "CDISC003",
                4,
                "AST",
                "Aspartate Aminotransferase",
                "CHEMISTRY",
                "52",
                "U/L",
                "11",
                "36",
                "52",
                52,
                "U/L",
                11,
                36,
                "HIGH",
                "Y",
                1,
                "SCREENING 1",
                "SCREENING",
                "2013-08-20T12:27",
                -9
            ],
            [
                "CDISCPILOT01",
                "LB",
                "CDISC003",
                6,
                "BILI",
                "Bilirubin",
                "CHEMISTRY",
                "0.6",
                "mg/dL",
                "0.2",
                "1.2",
                "10.26",
                10.26,
                "umol/L",
                3,
                21,
                "NORMAL",
                "Y",
                1,
                "SCREENING 1",
                "SCREENING",
                "2013-08-20T12:27",
                -9
            ],
            [
                "CDISCPILOT01",
                "LB",
                "CDISC003",
                7,
                "UREAN",
                "Urea Nitrogen",
                "CHEMISTRY",
                "13",
                "mg/dL",
                "4",
                "24",
                "4.641",
                4.641,
                "mmol/L",
                1.4,
                8.6,
                "NORMAL",
                "Y",
                1,
                "SCREENING 1",
                "SCREENING",
                "2013-08-20T12:27",
                -9
            ],
            [
                "CDISCPILOT01",
                "LB",
                "CDISC003",
                8,
                "CA",
                "Calcium",
                "CHEMISTRY",
                "9.6",
                "mg/dL",
                "8.4",
                "10.3",
                "2.3952",
                2.3952,
                "mmol/L",
                2.1,
                2.57,
                "NORMAL",
                "Y",
                1,
                "SCREENING 1",
                "SCREENING",
                "2013-08-20T12:27",
                -9
            ],
            [
                "CDISCPILOT01",
                "LB",
                "CDISC003",
                9,
                "CHOL",
                "Cholesterol",
                "CHEMISTRY",
                "255",
                "mg/dL",
                "149",
                "286",
                "6.5943",
                6.5943,
                "mmol/L",
                3.85,
                7.4,
                "NORMAL",
                "Y",
                1,
                "SCREENING 1",
                "SCREENING",
                "2013-08-20T12:27",
                -9
            ],
            [
                "CDISCPILOT01",
                "LB",
                "CDISC003",
                10,
                "CK",
                "Creatine Kinase",
                "CHEMISTRY",
                "444",
                "U/L",
                "22",
                "198",
                "444",
                444,
                "U/L",
                22,
                198,
                "HIGH",
                "Y",
                1,
                "SCREENING 1",
                "SCREENING",
                "2013-08-20T12:27",
                -9
            ],
            [
                "CDISCPILOT01",
                "LB",
                "CDISC003",
                11,
                "CL",
                "Chloride",
                "CHEMISTRY",
                "111",
                "mEq/L",
                "94",
                "112",
                "111",
                111,
                "mmol/L",
                94,
                112,
                "NORMAL",
                "Y",
                1,
                "SCREENING 1",
                "SCREENING",
                "2013-08-20T12:27",
                -9
            ],
            [
                "CDISCPILOT01",
                "LB",
                "CDISC003",
                13,
                "CREAT",
                "Creatinine",
                "CHEMISTRY",
                "1.3",
                "mg/dL",
                "0.8",
                "1.6",
                "114.92",
                114.92,
                "umol/L",
                71,
                141,
                "NORMAL",
                "Y",
                1,
                "SCREENING 1",
                "SCREENING",
                "2013-08-20T12:27",
                -9
            ],
            [
                "CDISCPILOT01",
                "LB",
                "CDISC003",
                15,
                "GGT",
                "Gamma Glutamyl Transferase",
                "CHEMISTRY",
                "17",
                "U/L",
                "10",
                "50",
                "17",
                17,
                "U/L",
                10,
                50,
                "NORMAL",
                "Y",
                1,
                "SCREENING 1",
                "SCREENING",
                "2013-08-20T12:27",
                -9
            ],
            [
                "CDISCPILOT01",
                "LB",
                "CDISC003",
                16,
                "GLUC",
                "Glucose",
                "CHEMISTRY",
                "85",
                "mg/dL",
                "50",
                "250",
                "4.71835",
                4.71835,
                "mmol/L",
                2.8,
                13.9,
                "NORMAL",
                "Y",
                1,
                "SCREENING 1",
                "SCREENING",
                "2013-08-20T12:27",
                -9
            ],
            [
                "CDISCPILOT01",
                "LB",
                "CDISC003",
                19,
                "K",
                "Potassium",
                "CHEMISTRY",
                "4.3",
                "mEq/L",
                "3.4",
                "5.4",
                "4.3",
                4.3,
                "mmol/L",
                3.4,
                5.4,
                "NORMAL",
                "Y",
                1,
                "SCREENING 1",
                "SCREENING",
                "2013-08-20T12:27",
                -9
            ],
            [
                "CDISCPILOT01",
                "LB",
                "CDISC003",
                26,
                "SODIUM",
                "Sodium",
                "CHEMISTRY",
                "140",
                "mEq/L",
                "135",
                "145",
                "140",
                140,
                "mmol/L",
                135,
                145,
                "NORMAL",
                "Y",
                1,
                "SCREENING 1",
                "SCREENING",
                "2013-08-20T12:27",
                -9
            ],
            [
                "CDISCPILOT01",
                "LB",
                "CDISC003",
                28,
                "PHOS",
                "Phosphate",
                "CHEMISTRY",
                "3.6",
                "mg/dL",
                "2.2",
                "5.1",
                "1.16244",
                1.16244,
                "mmol/L",
                0.71,
                1.65,
                "NORMAL",
                "Y",
                1,
                "SCREENING 1",
                "SCREENING",
                "2013-08-20T12:27",
                -9
            ],
            [
                "CDISCPILOT01",
                "LB",
                "CDISC003",
                30,
                "PROT",
                "Protein",
                "CHEMISTRY",
                "7.9",
                "g/dL",
                "6",
                "8",
                "79",
                79,
                "g/L",
                60,
                80,
                "NORMAL",
                "Y",
                1,
                "SCREENING 1",
                "SCREENING",
                "2013-08-20T12:27",
                -9
            ],
            [
                "CDISCPILOT01",
                "LB",
                "CDISC003",
                34,
                "URATE",
                "Urate",
                "CHEMISTRY",
                "3.6",
                "mg/dL",
                "2.5",
                "7.5",
                "214.128",
                214.128,
                "umol/L",
                149,
                446,
                "NORMAL",
                "Y",
                1,
                "SCREENING 1",
                "SCREENING",
                "2013-08-20T12:27",
                -9
            ],
            [
                "CDISCPILOT01",
                "LB",
                "CDISC003",
                38,
                "ALB",
                "Albumin",
                "CHEMISTRY",
                "3.6",
                "g/dL",
                "3.3",
                "4.9",
                "36",
                36,
                "g/L",
                33,
                49,
                "NORMAL",
                "",
                4,
                "WEEK 2",
                "TREATMENT",
                "2013-09-15T12:44",
                18
            ],
            [
                "CDISCPILOT01",
                "LB",
                "CDISC003",
                39,
                "ALP",
                "Alkaline Phosphatase",
                "CHEMISTRY",
                "61",
                "U/L",
                "35",
                "115",
                "61",
                61,
                "U/L",
                35,
                115,
                "NORMAL",
                "",
                4,
                "WEEK 2",
                "TREATMENT",
                "2013-09-15T12:44",
                18
            ],
            [
                "CDISCPILOT01",
                "LB",
                "CDISC003",
                40,
                "ALT",
                "Alanine Aminotransferase",
                "CHEMISTRY",
                "31",
                "U/L",
                "6",
                "43",
                "31",
                31,
                "U/L",
                6,
                43,
                "NORMAL",
                "",
                4,
                "WEEK 2",
                "TREATMENT",
                "2013-09-15T12:44",
                18
            ],
            [
                "CDISCPILOT01",
                "LB",
                "CDISC003",
                41,
                "AST",
                "Aspartate Aminotransferase",
                "CHEMISTRY",
                "30",
                "U/L",
                "11",
                "36",
                "30",
                30,
                "U/L",
                11,
                36,
                "NORMAL",
                "",
                4,
                "WEEK 2",
                "TREATMENT",
                "2013-09-15T12:44",
                18
            ],
            [
                "CDISCPILOT01",
                "LB",
                "CDISC003",
                43,
                "BILI",
                "Bilirubin",
                "CHEMISTRY",
                "0.4",
                "mg/dL",
                "0.2",
                "1.2",
                "6.84",
                6.84,
                "umol/L",
                3,
                21,
                "NORMAL",
                "",
                4,
                "WEEK 2",
                "TREATMENT",
                "2013-09-15T12:44",
                18
            ],
            [
                "CDISCPILOT01",
                "LB",
                "CDISC003",
                44,
                "UREAN",
                "Urea Nitrogen",
                "CHEMISTRY",
                "11",
                "mg/dL",
                "4",
                "24",
                "3.927",
                3.927,
                "mmol/L",
                1.4,
                8.6,
                "NORMAL",
                "",
                4,
                "WEEK 2",
                "TREATMENT",
                "2013-09-15T12:44",
                18
            ],
            [
                "CDISCPILOT01",
                "LB",
                "CDISC003",
                45,
                "CA",
                "Calcium",
                "CHEMISTRY",
                "8.7",
                "mg/dL",
                "8.4",
                "10.3",
                "2.17065",
                2.17065,
                "mmol/L",
                2.1,
                2.57,
                "NORMAL",
                "",
                4,
                "WEEK 2",
                "TREATMENT",
                "2013-09-15T12:44",
                18
            ],
            [
                "CDISCPILOT01",
                "LB",
                "CDISC003",
                46,
                "CHOL",
                "Cholesterol",
                "CHEMISTRY",
                "225",
                "mg/dL",
                "149",
                "286",
                "5.8185",
                5.8185,
                "mmol/L",
                3.85,
                7.4,
                "NORMAL",
                "",
                4,
                "WEEK 2",
                "TREATMENT",
                "2013-09-15T12:44",
                18
            ],
            [
                "CDISCPILOT01",
                "LB",
                "CDISC003",
                47,
                "CK",
                "Creatine Kinase",
                "CHEMISTRY",
                "100",
                "U/L",
                "22",
                "198",
                "100",
                100,
                "U/L",
                22,
                198,
                "NORMAL",
                "",
                4,
                "WEEK 2",
                "TREATMENT",
                "2013-09-15T12:44",
                18
            ],
            [
                "CDISCPILOT01",
                "LB",
                "CDISC003",
                48,
                "CL",
                "Chloride",
                "CHEMISTRY",
                "108",
                "mEq/L",
                "94",
                "112",
                "108",
                108,
                "mmol/L",
                94,
                112,
                "NORMAL",
                "",
                4,
                "WEEK 2",
                "TREATMENT",
                "2013-09-15T12:44",
                18
            ],
            [
                "CDISCPILOT01",
                "LB",
                "CDISC003",
                50,
                "CREAT",
                "Creatinine",
                "CHEMISTRY",
                "1.1",
                "mg/dL",
                "0.8",
                "1.6",
                "97.24",
                97.24,
                "umol/L",
                71,
                141,
                "NORMAL",
                "",
                4,
                "WEEK 2",
                "TREATMENT",
                "2013-09-15T12:44",
                18
            ],
            [
                "CDISCPILOT01",
                "LB",
                "CDISC003",
                52,
                "GGT",
                "Gamma Glutamyl Transferase",
                "CHEMISTRY",
                "12",
                "U/L",
                "10",
                "50",
                "12",
                12,
                "U/L",
                10,
                50,
                "NORMAL",
                "",
                4,
                "WEEK 2",
                "TREATMENT",
                "2013-09-15T12:44",
                18
            ],
            [
                "CDISCPILOT01",
                "LB",
                "CDISC003",
                53,
                "GLUC",
                "Glucose",
                "CHEMISTRY",
                "88",
                "mg/dL",
                "50",
                "250",
                "4.88488",
                4.88488,
                "mmol/L",
                2.8,
                13.9,
                "NORMAL",
                "",
                4,
                "WEEK 2",
                "TREATMENT",
                "2013-09-15T12:44",
                18
            ],
            [
                "CDISCPILOT01",
                "LB",
                "CDISC003",
                56,
                "K",
                "Potassium",
                "CHEMISTRY",
                "3.8",
                "mEq/L",
                "3.4",
                "5.4",
                "3.8",
                3.8,
                "mmol/L",
                3.4,
                5.4,
                "NORMAL",
                "",
                4,
                "WEEK 2",
                "TREATMENT",
                "2013-09-15T12:44",
                18
            ],
            [
                "CDISCPILOT01",
                "LB",
                "CDISC003",
                63,
                "SODIUM",
                "Sodium",
                "CHEMISTRY",
                "140",
                "mEq/L",
                "135",
                "145",
                "140",
                140,
                "mmol/L",
                135,
                145,
                "NORMAL",
                "",
                4,
                "WEEK 2",
                "TREATMENT",
                "2013-09-15T12:44",
                18
            ],
            [
                "CDISCPILOT01",
                "LB",
                "CDISC003",
                65,
                "PHOS",
                "Phosphate",
                "CHEMISTRY",
                "2.8",
                "mg/dL",
                "2.2",
                "5.1",
                "0.90412",
                0.90412,
                "mmol/L",
                0.71,
                1.65,
                "NORMAL",
                "",
                4,
                "WEEK 2",
                "TREATMENT",
                "2013-09-15T12:44",
                18
            ],
            [
                "CDISCPILOT01",
                "LB",
                "CDISC003",
                67,
                "PROT",
                "Protein",
                "CHEMISTRY",
                "6.8",
                "g/dL",
                "6",
                "8",
                "68",
                68,
                "g/L",
                60,
                80,
                "NORMAL",
                "",
                4,
                "WEEK 2",
                "TREATMENT",
                "2013-09-15T12:44",
                18
            ],
            [
                "CDISCPILOT01",
                "LB",
                "CDISC003",
                70,
                "URATE",
                "Urate",
                "CHEMISTRY",
                "3.6",
                "mg/dL",
                "2.5",
                "7.5",
                "214.128",
                214.128,
                "umol/L",
                149,
                446,
                "NORMAL",
                "",
                4,
                "WEEK 2",
                "TREATMENT",
                "2013-09-15T12:44",
                18
            ],
            [
                "CDISCPILOT01",
                "LB",
                "CDISC003",
                73,
                "ALB",
                "Albumin",
                "CHEMISTRY",
                "4.0",
                "g/dL",
                "3.3",
                "4.9",
                "40",
                40,
                "g/L",
                33,
                49,
                "NORMAL",
                "",
                5,
                "WEEK 4",
                "TREATMENT",
                "2013-09-24T08:16",
                27
            ],
            [
                "CDISCPILOT01",
                "LB",
                "CDISC003",
                74,
                "ALP",
                "Alkaline Phosphatase",
                "CHEMISTRY",
                "75",
                "U/L",
                "35",
                "115",
                "75",
                75,
                "U/L",
                35,
                115,
                "NORMAL",
                "",
                5,
                "WEEK 4",
                "TREATMENT",
                "2013-09-24T08:16",
                27
            ],
            [
                "CDISCPILOT01",
                "LB",
                "CDISC003",
                75,
                "ALT",
                "Alanine Aminotransferase",
                "CHEMISTRY",
                "34",
                "U/L",
                "6",
                "43",
                "34",
                34,
                "U/L",
                6,
                43,
                "NORMAL",
                "",
                5,
                "WEEK 4",
                "TREATMENT",
                "2013-09-24T08:16",
                27
            ],
            [
                "CDISCPILOT01",
                "LB",
                "CDISC003",
                76,
                "AST",
                "Aspartate Aminotransferase",
                "CHEMISTRY",
                "30",
                "U/L",
                "11",
                "36",
                "30",
                30,
                "U/L",
                11,
                36,
                "NORMAL",
                "",
                5,
                "WEEK 4",
                "TREATMENT",
                "2013-09-24T08:16",
                27
            ],
            [
                "CDISCPILOT01",
                "LB",
                "CDISC003",
                78,
                "BILI",
                "Bilirubin",
                "CHEMISTRY",
                "0.5",
                "mg/dL",
                "0.2",
                "1.2",
                "8.55",
                8.55,
                "umol/L",
                3,
                21,
                "NORMAL",
                "",
                5,
                "WEEK 4",
                "TREATMENT",
                "2013-09-24T08:16",
                27
            ],
            [
                "CDISCPILOT01",
                "LB",
                "CDISC003",
                79,
                "UREAN",
                "Urea Nitrogen",
                "CHEMISTRY",
                "12",
                "mg/dL",
                "4",
                "24",
                "4.284",
                4.284,
                "mmol/L",
                1.4,
                8.6,
                "NORMAL",
                "",
                5,
                "WEEK 4",
                "TREATMENT",
                "2013-09-24T08:16",
                27
            ],
            [
                "CDISCPILOT01",
                "LB",
                "CDISC003",
                80,
                "CA",
                "Calcium",
                "CHEMISTRY",
                "8.7",
                "mg/dL",
                "8.4",
                "10.3",
                "2.17065",
                2.17065,
                "mmol/L",
                2.1,
                2.57,
                "NORMAL",
                "",
                5,
                "WEEK 4",
                "TREATMENT",
                "2013-09-24T08:16",
                27
            ],
            [
                "CDISCPILOT01",
                "LB",
                "CDISC003",
                81,
                "CHOL",
                "Cholesterol",
                "CHEMISTRY",
                "239",
                "mg/dL",
                "149",
                "286",
                "6.18054",
                6.18054,
                "mmol/L",
                3.85,
                7.4,
                "NORMAL",
                "",
                5,
                "WEEK 4",
                "TREATMENT",
                "2013-09-24T08:16",
                27
            ],
            [
                "CDISCPILOT01",
                "LB",
                "CDISC003",
                82,
                "CK",
                "Creatine Kinase",
                "CHEMISTRY",
                "123",
                "U/L",
                "22",
                "198",
                "123",
                123,
                "U/L",
                22,
                198,
                "NORMAL",
                "",
                5,
                "WEEK 4",
                "TREATMENT",
                "2013-09-24T08:16",
                27
            ],
            [
                "CDISCPILOT01",
                "LB",
                "CDISC003",
                83,
                "CL",
                "Chloride",
                "CHEMISTRY",
                "109",
                "mEq/L",
                "94",
                "112",
                "109",
                109,
                "mmol/L",
                94,
                112,
                "NORMAL",
                "",
                5,
                "WEEK 4",
                "TREATMENT",
                "2013-09-24T08:16",
                27
            ],
            [
                "CDISCPILOT01",
                "LB",
                "CDISC003",
                84,
                "CREAT",
                "Creatinine",
                "CHEMISTRY",
                "1.2",
                "mg/dL",
                "0.8",
                "1.6",
                "106.08",
                106.08,
                "umol/L",
                71,
                141,
                "NORMAL",
                "",
                5,
                "WEEK 4",
                "TREATMENT",
                "2013-09-24T08:16",
                27
            ],
            [
                "CDISCPILOT01",
                "LB",
                "CDISC003",
                86,
                "GGT",
                "Gamma Glutamyl Transferase",
                "CHEMISTRY",
                "17",
                "U/L",
                "10",
                "50",
                "17",
                17,
                "U/L",
                10,
                50,
                "NORMAL",
                "",
                5,
                "WEEK 4",
                "TREATMENT",
                "2013-09-24T08:16",
                27
            ],
            [
                "CDISCPILOT01",
                "LB",
                "CDISC003",
                87,
                "GLUC",
                "Glucose",
                "CHEMISTRY",
                "102",
                "mg/dL",
                "50",
                "250",
                "5.66202",
                5.66202,
                "mmol/L",
                2.8,
                13.9,
                "NORMAL",
                "",
                5,
                "WEEK 4",
                "TREATMENT",
                "2013-09-24T08:16",
                27
            ],
            [
                "CDISCPILOT01",
                "LB",
                "CDISC003",
                90,
                "K",
                "Potassium",
                "CHEMISTRY",
                "4.1",
                "mEq/L",
                "3.4",
                "5.4",
                "4.1",
                4.1,
                "mmol/L",
                3.4,
                5.4,
                "NORMAL",
                "",
                5,
                "WEEK 4",
                "TREATMENT",
                "2013-09-24T08:16",
                27
            ],
            [
                "CDISCPILOT01",
                "LB",
                "CDISC003",
                96,
                "SODIUM",
                "Sodium",
                "CHEMISTRY",
                "136",
                "mEq/L",
                "135",
                "145",
                "136",
                136,
                "mmol/L",
                135,
                145,
                "NORMAL",
                "",
                5,
                "WEEK 4",
                "TREATMENT",
                "2013-09-24T08:16",
                27
            ],
            [
                "CDISCPILOT01",
                "LB",
                "CDISC003",
                97,
                "PHOS",
                "Phosphate",
                "CHEMISTRY",
                "2.9",
                "mg/dL",
                "2.2",
                "5.1",
                "0.93641",
                0.93641,
                "mmol/L",
                0.71,
                1.65,
                "NORMAL",
                "",
                5,
                "WEEK 4",
                "TREATMENT",
                "2013-09-24T08:16",
                27
            ],
            [
                "CDISCPILOT01",
                "LB",
                "CDISC003",
                99,
                "PROT",
                "Protein",
                "CHEMISTRY",
                "7.4",
                "g/dL",
                "6",
                "8",
                "74",
                74,
                "g/L",
                60,
                80,
                "NORMAL",
                "",
                5,
                "WEEK 4",
                "TREATMENT",
                "2013-09-24T08:16",
                27
            ],
            [
                "CDISCPILOT01",
                "LB",
                "CDISC003",
                101,
                "URATE",
                "Urate",
                "CHEMISTRY",
                "4.5",
                "mg/dL",
                "2.5",
                "7.5",
                "267.66",
                267.66,
                "umol/L",
                149,
                446,
                "NORMAL",
                "",
                5,
                "WEEK 4",
                "TREATMENT",
                "2013-09-24T08:16",
                27
            ],
            [
                "CDISCPILOT01",
                "LB",
                "CDISC003",
                103,
                "ALB",
                "Albumin",
                "CHEMISTRY",
                "4.1",
                "g/dL",
                "3.3",
                "4.9",
                "41",
                41,
                "g/L",
                33,
                49,
                "NORMAL",
                "",
                7,
                "WEEK 6",
                "TREATMENT",
                "2013-10-08T15:30",
                41
            ],
            [
                "CDISCPILOT01",
                "LB",
                "CDISC003",
                104,
                "ALP",
                "Alkaline Phosphatase",
                "CHEMISTRY",
                "77",
                "U/L",
                "35",
                "115",
                "77",
                77,
                "U/L",
                35,
                115,
                "NORMAL",
                "",
                7,
                "WEEK 6",
                "TREATMENT",
                "2013-10-08T15:30",
                41
            ],
            [
                "CDISCPILOT01",
                "LB",
                "CDISC003",
                105,
                "ALT",
                "Alanine Aminotransferase",
                "CHEMISTRY",
                "52",
                "U/L",
                "6",
                "43",
                "52",
                52,
                "U/L",
                6,
                43,
                "HIGH",
                "",
                7,
                "WEEK 6",
                "TREATMENT",
                "2013-10-08T15:30",
                41
            ],
            [
                "CDISCPILOT01",
                "LB",
                "CDISC003",
                106,
                "AST",
                "Aspartate Aminotransferase",
                "CHEMISTRY",
                "73",
                "U/L",
                "11",
                "36",
                "73",
                73,
                "U/L",
                11,
                36,
                "HIGH",
                "",
                7,
                "WEEK 6",
                "TREATMENT",
                "2013-10-08T15:30",
                41
            ],
            [
                "CDISCPILOT01",
                "LB",
                "CDISC003",
                108,
                "BILI",
                "Bilirubin",
                "CHEMISTRY",
                "0.6",
                "mg/dL",
                "0.2",
                "1.2",
                "10.26",
                10.26,
                "umol/L",
                3,
                21,
                "NORMAL",
                "",
                7,
                "WEEK 6",
                "TREATMENT",
                "2013-10-08T15:30",
                41
            ],
            [
                "CDISCPILOT01",
                "LB",
                "CDISC003",
                109,
                "UREAN",
                "Urea Nitrogen",
                "CHEMISTRY",
                "16",
                "mg/dL",
                "4",
                "24",
                "5.712",
                5.712,
                "mmol/L",
                1.4,
                8.6,
                "NORMAL",
                "",
                7,
                "WEEK 6",
                "TREATMENT",
                "2013-10-08T15:30",
                41
            ],
            [
                "CDISCPILOT01",
                "LB",
                "CDISC003",
                110,
                "CA",
                "Calcium",
                "CHEMISTRY",
                "9.2",
                "mg/dL",
                "8.4",
                "10.3",
                "2.2954",
                2.2954,
                "mmol/L",
                2.1,
                2.57,
                "NORMAL",
                "",
                7,
                "WEEK 6",
                "TREATMENT",
                "2013-10-08T15:30",
                41
            ],
            [
                "CDISCPILOT01",
                "LB",
                "CDISC003",
                111,
                "CHOL",
                "Cholesterol",
                "CHEMISTRY",
                "232",
                "mg/dL",
                "149",
                "286",
                "5.99952",
                5.99952,
                "mmol/L",
                3.85,
                7.4,
                "NORMAL",
                "",
                7,
                "WEEK 6",
                "TREATMENT",
                "2013-10-08T15:30",
                41
            ],
            [
                "CDISCPILOT01",
                "LB",
                "CDISC003",
                112,
                "CK",
                "Creatine Kinase",
                "CHEMISTRY",
                "1860",
                "U/L",
                "22",
                "198",
                "1860",
                1860,
                "U/L",
                22,
                198,
                "HIGH",
                "",
                7,
                "WEEK 6",
                "TREATMENT",
                "2013-10-08T15:30",
                41
            ],
            [
                "CDISCPILOT01",
                "LB",
                "CDISC003",
                113,
                "CL",
                "Chloride",
                "CHEMISTRY",
                "109",
                "mEq/L",
                "94",
                "112",
                "109",
                109,
                "mmol/L",
                94,
                112,
                "NORMAL",
                "",
                7,
                "WEEK 6",
                "TREATMENT",
                "2013-10-08T15:30",
                41
            ],
            [
                "CDISCPILOT01",
                "LB",
                "CDISC003",
                114,
                "CREAT",
                "Creatinine",
                "CHEMISTRY",
                "1.3",
                "mg/dL",
                "0.8",
                "1.6",
                "114.92",
                114.92,
                "umol/L",
                71,
                141,
                "NORMAL",
                "",
                7,
                "WEEK 6",
                "TREATMENT",
                "2013-10-08T15:30",
                41
            ],
            [
                "CDISCPILOT01",
                "LB",
                "CDISC003",
                116,
                "GGT",
                "Gamma Glutamyl Transferase",
                "CHEMISTRY",
                "13",
                "U/L",
                "10",
                "50",
                "13",
                13,
                "U/L",
                10,
                50,
                "NORMAL",
                "",
                7,
                "WEEK 6",
                "TREATMENT",
                "2013-10-08T15:30",
                41
            ],
            [
                "CDISCPILOT01",
                "LB",
                "CDISC003",
                117,
                "GLUC",
                "Glucose",
                "CHEMISTRY",
                "86",
                "mg/dL",
                "50",
                "250",
                "4.77386",
                4.77386,
                "mmol/L",
                2.8,
                13.9,
                "NORMAL",
                "",
                7,
                "WEEK 6",
                "TREATMENT",
                "2013-10-08T15:30",
                41
            ],
            [
                "CDISCPILOT01",
                "LB",
                "CDISC003",
                120,
                "K",
                "Potassium",
                "CHEMISTRY",
                "3.9",
                "mEq/L",
                "3.4",
                "5.4",
                "3.9",
                3.9,
                "mmol/L",
                3.4,
                5.4,
                "NORMAL",
                "",
                7,
                "WEEK 6",
                "TREATMENT",
                "2013-10-08T15:30",
                41
            ],
            [
                "CDISCPILOT01",
                "LB",
                "CDISC003",
                126,
                "SODIUM",
                "Sodium",
                "CHEMISTRY",
                "137",
                "mEq/L",
                "135",
                "145",
                "137",
                137,
                "mmol/L",
                135,
                145,
                "NORMAL",
                "",
                7,
                "WEEK 6",
                "TREATMENT",
                "2013-10-08T15:30",
                41
            ],
            [
                "CDISCPILOT01",
                "LB",
                "CDISC003",
                127,
                "PHOS",
                "Phosphate",
                "CHEMISTRY",
                "3.1",
                "mg/dL",
                "2.2",
                "5.1",
                "1.00099",
                1.00099,
                "mmol/L",
                0.71,
                1.65,
                "NORMAL",
                "",
                7,
                "WEEK 6",
                "TREATMENT",
                "2013-10-08T15:30",
                41
            ],
            [
                "CDISCPILOT01",
                "LB",
                "CDISC003",
                129,
                "PROT",
                "Protein",
                "CHEMISTRY",
                "7.2",
                "g/dL",
                "6",
                "8",
                "72",
                72,
                "g/L",
                60,
                80,
                "NORMAL",
                "",
                7,
                "WEEK 6",
                "TREATMENT",
                "2013-10-08T15:30",
                41
            ],
            [
                "CDISCPILOT01",
                "LB",
                "CDISC003",
                131,
                "URATE",
                "Urate",
                "CHEMISTRY",
                "4.2",
                "mg/dL",
                "2.5",
                "7.5",
                "249.816",
                249.816,
                "umol/L",
                149,
                446,
                "NORMAL",
                "",
                7,
                "WEEK 6",
                "TREATMENT",
                "2013-10-08T15:30",
                41
            ],
            [
                "CDISCPILOT01",
                "LB",
                "CDISC003",
                133,
                "ALB",
                "Albumin",
                "CHEMISTRY",
                "4.1",
                "g/dL",
                "3.3",
                "4.9",
                "41",
                41,
                "g/L",
                33,
                49,
                "NORMAL",
                "",
                8,
                "WEEK 8",
                "TREATMENT",
                "2013-10-22T11:54",
                55
            ],
            [
                "CDISCPILOT01",
                "LB",
                "CDISC003",
                134,
                "ALP",
                "Alkaline Phosphatase",
                "CHEMISTRY",
                "62",
                "U/L",
                "35",
                "115",
                "62",
                62,
                "U/L",
                35,
                115,
                "NORMAL",
                "",
                8,
                "WEEK 8",
                "TREATMENT",
                "2013-10-22T11:54",
                55
            ],
            [
                "CDISCPILOT01",
                "LB",
                "CDISC003",
                135,
                "ALT",
                "Alanine Aminotransferase",
                "CHEMISTRY",
                "33",
                "U/L",
                "6",
                "43",
                "33",
                33,
                "U/L",
                6,
                43,
                "NORMAL",
                "",
                8,
                "WEEK 8",
                "TREATMENT",
                "2013-10-22T11:54",
                55
            ],
            [
                "CDISCPILOT01",
                "LB",
                "CDISC003",
                136,
                "AST",
                "Aspartate Aminotransferase",
                "CHEMISTRY",
                "30",
                "U/L",
                "11",
                "36",
                "30",
                30,
                "U/L",
                11,
                36,
                "NORMAL",
                "",
                8,
                "WEEK 8",
                "TREATMENT",
                "2013-10-22T11:54",
                55
            ],
            [
                "CDISCPILOT01",
                "LB",
                "CDISC003",
                138,
                "BILI",
                "Bilirubin",
                "CHEMISTRY",
                "0.5",
                "mg/dL",
                "0.2",
                "1.2",
                "8.55",
                8.55,
                "umol/L",
                3,
                21,
                "NORMAL",
                "",
                8,
                "WEEK 8",
                "TREATMENT",
                "2013-10-22T11:54",
                55
            ],
            [
                "CDISCPILOT01",
                "LB",
                "CDISC003",
                139,
                "UREAN",
                "Urea Nitrogen",
                "CHEMISTRY",
                "14",
                "mg/dL",
                "4",
                "24",
                "4.998",
                4.998,
                "mmol/L",
                1.4,
                8.6,
                "NORMAL",
                "",
                8,
                "WEEK 8",
                "TREATMENT",
                "2013-10-22T11:54",
                55
            ],
            [
                "CDISCPILOT01",
                "LB",
                "CDISC003",
                140,
                "CA",
                "Calcium",
                "CHEMISTRY",
                "9.5",
                "mg/dL",
                "8.4",
                "10.3",
                "2.37025",
                2.37025,
                "mmol/L",
                2.1,
                2.57,
                "NORMAL",
                "",
                8,
                "WEEK 8",
                "TREATMENT",
                "2013-10-22T11:54",
                55
            ],
            [
                "CDISCPILOT01",
                "LB",
                "CDISC003",
                141,
                "CHOL",
                "Cholesterol",
                "CHEMISTRY",
                "241",
                "mg/dL",
                "149",
                "286",
                "6.23226",
                6.23226,
                "mmol/L",
                3.85,
                7.4,
                "NORMAL",
                "",
                8,
                "WEEK 8",
                "TREATMENT",
                "2013-10-22T11:54",
                55
            ],
            [
                "CDISCPILOT01",
                "LB",
                "CDISC003",
                142,
                "CK",
                "Creatine Kinase",
                "CHEMISTRY",
                "145",
                "U/L",
                "22",
                "198",
                "145",
                145,
                "U/L",
                22,
                198,
                "NORMAL",
                "",
                8,
                "WEEK 8",
                "TREATMENT",
                "2013-10-22T11:54",
                55
            ],
            [
                "CDISCPILOT01",
                "LB",
                "CDISC003",
                143,
                "CL",
                "Chloride",
                "CHEMISTRY",
                "105",
                "mEq/L",
                "94",
                "112",
                "105",
                105,
                "mmol/L",
                94,
                112,
                "NORMAL",
                "",
                8,
                "WEEK 8",
                "TREATMENT",
                "2013-10-22T11:54",
                55
            ],
            [
                "CDISCPILOT01",
                "LB",
                "CDISC003",
                144,
                "CREAT",
                "Creatinine",
                "CHEMISTRY",
                "1.3",
                "mg/dL",
                "0.8",
                "1.6",
                "114.92",
                114.92,
                "umol/L",
                71,
                141,
                "NORMAL",
                "",
                8,
                "WEEK 8",
                "TREATMENT",
                "2013-10-22T11:54",
                55
            ],
            [
                "CDISCPILOT01",
                "LB",
                "CDISC003",
                146,
                "GGT",
                "Gamma Glutamyl Transferase",
                "CHEMISTRY",
                "14",
                "U/L",
                "10",
                "50",
                "14",
                14,
                "U/L",
                10,
                50,
                "NORMAL",
                "",
                8,
                "WEEK 8",
                "TREATMENT",
                "2013-10-22T11:54",
                55
            ],
            [
                "CDISCPILOT01",
                "LB",
                "CDISC003",
                147,
                "GLUC",
                "Glucose",
                "CHEMISTRY",
                "92",
                "mg/dL",
                "50",
                "250",
                "5.10692",
                5.10692,
                "mmol/L",
                2.8,
                13.9,
                "NORMAL",
                "",
                8,
                "WEEK 8",
                "TREATMENT",
                "2013-10-22T11:54",
                55
            ],
            [
                "CDISCPILOT01",
                "LB",
                "CDISC003",
                150,
                "K",
                "Potassium",
                "CHEMISTRY",
                "4.3",
                "mEq/L",
                "3.4",
                "5.4",
                "4.3",
                4.3,
                "mmol/L",
                3.4,
                5.4,
                "NORMAL",
                "",
                8,
                "WEEK 8",
                "TREATMENT",
                "2013-10-22T11:54",
                55
            ],
            [
                "CDISCPILOT01",
                "LB",
                "CDISC003",
                156,
                "SODIUM",
                "Sodium",
                "CHEMISTRY",
                "136",
                "mEq/L",
                "135",
                "145",
                "136",
                136,
                "mmol/L",
                135,
                145,
                "NORMAL",
                "",
                8,
                "WEEK 8",
                "TREATMENT",
                "2013-10-22T11:54",
                55
            ],
            [
                "CDISCPILOT01",
                "LB",
                "CDISC003",
                157,
                "PHOS",
                "Phosphate",
                "CHEMISTRY",
                "3.3",
                "mg/dL",
                "2.2",
                "5.1",
                "1.06557",
                1.06557,
                "mmol/L",
                0.71,
                1.65,
                "NORMAL",
                "",
                8,
                "WEEK 8",
                "TREATMENT",
                "2013-10-22T11:54",
                55
            ],
            [
                "CDISCPILOT01",
                "LB",
                "CDISC003",
                159,
                "PROT",
                "Protein",
                "CHEMISTRY",
                "7.4",
                "g/dL",
                "6",
                "8",
                "74",
                74,
                "g/L",
                60,
                80,
                "NORMAL",
                "",
                8,
                "WEEK 8",
                "TREATMENT",
                "2013-10-22T11:54",
                55
            ],
            [
                "CDISCPILOT01",
                "LB",
                "CDISC003",
                161,
                "URATE",
                "Urate",
                "CHEMISTRY",
                "3.6",
                "mg/dL",
                "2.5",
                "7.5",
                "214.128",
                214.128,
                "umol/L",
                149,
                446,
                "NORMAL",
                "",
                8,
                "WEEK 8",
                "TREATMENT",
                "2013-10-22T11:54",
                55
            ],
            [
                "CDISCPILOT01",
                "LB",
                "CDISC003",
                163,
                "ALB",
                "Albumin",
                "CHEMISTRY",
                "4.1",
                "g/dL",
                "3.3",
                "4.9",
                "41",
                41,
                "g/L",
                33,
                49,
                "NORMAL",
                "",
                9,
                "WEEK 12",
                "TREATMENT",
                "2013-11-05T13:54",
                69
            ],
            [
                "CDISCPILOT01",
                "LB",
                "CDISC003",
                164,
                "ALP",
                "Alkaline Phosphatase",
                "CHEMISTRY",
                "62",
                "U/L",
                "35",
                "115",
                "62",
                62,
                "U/L",
                35,
                115,
                "NORMAL",
                "",
                9,
                "WEEK 12",
                "TREATMENT",
                "2013-11-05T13:54",
                69
            ],
            [
                "CDISCPILOT01",
                "LB",
                "CDISC003",
                165,
                "ALT",
                "Alanine Aminotransferase",
                "CHEMISTRY",
                "24",
                "U/L",
                "6",
                "43",
                "24",
                24,
                "U/L",
                6,
                43,
                "NORMAL",
                "",
                9,
                "WEEK 12",
                "TREATMENT",
                "2013-11-05T13:54",
                69
            ],
            [
                "CDISCPILOT01",
                "LB",
                "CDISC003",
                166,
                "AST",
                "Aspartate Aminotransferase",
                "CHEMISTRY",
                "25",
                "U/L",
                "11",
                "36",
                "25",
                25,
                "U/L",
                11,
                36,
                "NORMAL",
                "",
                9,
                "WEEK 12",
                "TREATMENT",
                "2013-11-05T13:54",
                69
            ],
            [
                "CDISCPILOT01",
                "LB",
                "CDISC003",
                168,
                "BILI",
                "Bilirubin",
                "CHEMISTRY",
                "0.5",
                "mg/dL",
                "0.2",
                "1.2",
                "8.55",
                8.55,
                "umol/L",
                3,
                21,
                "NORMAL",
                "",
                9,
                "WEEK 12",
                "TREATMENT",
                "2013-11-05T13:54",
                69
            ],
            [
                "CDISCPILOT01",
                "LB",
                "CDISC003",
                169,
                "UREAN",
                "Urea Nitrogen",
                "CHEMISTRY",
                "13",
                "mg/dL",
                "4",
                "24",
                "4.641",
                4.641,
                "mmol/L",
                1.4,
                8.6,
                "NORMAL",
                "",
                9,
                "WEEK 12",
                "TREATMENT",
                "2013-11-05T13:54",
                69
            ],
            [
                "CDISCPILOT01",
                "LB",
                "CDISC003",
                170,
                "CA",
                "Calcium",
                "CHEMISTRY",
                "9.3",
                "mg/dL",
                "8.4",
                "10.3",
                "2.32035",
                2.32035,
                "mmol/L",
                2.1,
                2.57,
                "NORMAL",
                "",
                9,
                "WEEK 12",
                "TREATMENT",
                "2013-11-05T13:54",
                69
            ],
            [
                "CDISCPILOT01",
                "LB",
                "CDISC003",
                171,
                "CHOL",
                "Cholesterol",
                "CHEMISTRY",
                "232",
                "mg/dL",
                "149",
                "286",
                "5.99952",
                5.99952,
                "mmol/L",
                3.85,
                7.4,
                "NORMAL",
                "",
                9,
                "WEEK 12",
                "TREATMENT",
                "2013-11-05T13:54",
                69
            ],
            [
                "CDISCPILOT01",
                "LB",
                "CDISC003",
                172,
                "CK",
                "Creatine Kinase",
                "CHEMISTRY",
                "112",
                "U/L",
                "22",
                "198",
                "112",
                112,
                "U/L",
                22,
                198,
                "NORMAL",
                "",
                9,
                "WEEK 12",
                "TREATMENT",
                "2013-11-05T13:54",
                69
            ],
            [
                "CDISCPILOT01",
                "LB",
                "CDISC003",
                173,
                "CL",
                "Chloride",
                "CHEMISTRY",
                "106",
                "mEq/L",
                "94",
                "112",
                "106",
                106,
                "mmol/L",
                94,
                112,
                "NORMAL",
                "",
                9,
                "WEEK 12",
                "TREATMENT",
                "2013-11-05T13:54",
                69
            ],
            [
                "CDISCPILOT01",
                "LB",
                "CDISC003",
                175,
                "CREAT",
                "Creatinine",
                "CHEMISTRY",
                "1.3",
                "mg/dL",
                "0.8",
                "1.6",
                "114.92",
                114.92,
                "umol/L",
                71,
                141,
                "NORMAL",
                "",
                9,
                "WEEK 12",
                "TREATMENT",
                "2013-11-05T13:54",
                69
            ],
            [
                "CDISCPILOT01",
                "LB",
                "CDISC003",
                177,
                "GGT",
                "Gamma Glutamyl Transferase",
                "CHEMISTRY",
                "13",
                "U/L",
                "10",
                "50",
                "13",
                13,
                "U/L",
                10,
                50,
                "NORMAL",
                "",
                9,
                "WEEK 12",
                "TREATMENT",
                "2013-11-05T13:54",
                69
            ],
            [
                "CDISCPILOT01",
                "LB",
                "CDISC003",
                178,
                "GLUC",
                "Glucose",
                "CHEMISTRY",
                "93",
                "mg/dL",
                "50",
                "250",
                "5.16243",
                5.16243,
                "mmol/L",
                2.8,
                13.9,
                "NORMAL",
                "",
                9,
                "WEEK 12",
                "TREATMENT",
                "2013-11-05T13:54",
                69
            ],
            [
                "CDISCPILOT01",
                "LB",
                "CDISC003",
                181,
                "K",
                "Potassium",
                "CHEMISTRY",
                "4.1",
                "mEq/L",
                "3.4",
                "5.4",
                "4.1",
                4.1,
                "mmol/L",
                3.4,
                5.4,
                "NORMAL",
                "",
                9,
                "WEEK 12",
                "TREATMENT",
                "2013-11-05T13:54",
                69
            ],
            [
                "CDISCPILOT01",
                "LB",
                "CDISC003",
                188,
                "SODIUM",
                "Sodium",
                "CHEMISTRY",
                "139",
                "mEq/L",
                "135",
                "145",
                "139",
                139,
                "mmol/L",
                135,
                145,
                "NORMAL",
                "",
                9,
                "WEEK 12",
                "TREATMENT",
                "2013-11-05T13:54",
                69
            ],
            [
                "CDISCPILOT01",
                "LB",
                "CDISC003",
                190,
                "PHOS",
                "Phosphate",
                "CHEMISTRY",
                "3.5",
                "mg/dL",
                "2.2",
                "5.1",
                "1.13015",
                1.13015,
                "mmol/L",
                0.71,
                1.65,
                "NORMAL",
                "",
                9,
                "WEEK 12",
                "TREATMENT",
                "2013-11-05T13:54",
                69
            ],
            [
                "CDISCPILOT01",
                "LB",
                "CDISC003",
                192,
                "PROT",
                "Protein",
                "CHEMISTRY",
                "7.4",
                "g/dL",
                "6",
                "8",
                "74",
                74,
                "g/L",
                60,
                80,
                "NORMAL",
                "",
                9,
                "WEEK 12",
                "TREATMENT",
                "2013-11-05T13:54",
                69
            ],
            [
                "CDISCPILOT01",
                "LB",
                "CDISC003",
                195,
                "URATE",
                "Urate",
                "CHEMISTRY",
                "3.6",
                "mg/dL",
                "2.5",
                "7.5",
                "214.128",
                214.128,
                "umol/L",
                149,
                446,
                "NORMAL",
                "",
                9,
                "WEEK 12",
                "TREATMENT",
                "2013-11-05T13:54",
                69
            ],
            [
                "CDISCPILOT01",
                "LB",
                "CDISC004",
                1,
                "ALB",
                "Albumin",
                "CHEMISTRY",
                "4.5",
                "g/dL",
                "3.3",
                "4.9",
                "45",
                45,
                "g/L",
                33,
                49,
                "NORMAL",
                "Y",
                1,
                "SCREENING 1",
                "SCREENING",
                "2013-10-01T12:50",
                -7
            ],
            [
                "CDISCPILOT01",
                "LB",
                "CDISC004",
                2,
                "ALP",
                "Alkaline Phosphatase",
                "CHEMISTRY",
                "60",
                "U/L",
                "35",
                "115",
                "60",
                60,
                "U/L",
                35,
                115,
                "NORMAL",
                "Y",
                1,
                "SCREENING 1",
                "SCREENING",
                "2013-10-01T12:50",
                -7
            ],
            [
                "CDISCPILOT01",
                "LB",
                "CDISC004",
                3,
                "ALT",
                "Alanine Aminotransferase",
                "CHEMISTRY",
                "13",
                "U/L",
                "6",
                "34",
                "13",
                13,
                "U/L",
                6,
                34,
                "NORMAL",
                "Y",
                1,
                "SCREENING 1",
                "SCREENING",
                "2013-10-01T12:50",
                -7
            ],
            [
                "CDISCPILOT01",
                "LB",
                "CDISC004",
                4,
                "AST",
                "Aspartate Aminotransferase",
                "CHEMISTRY",
                "22",
                "U/L",
                "9",
                "34",
                "22",
                22,
                "U/L",
                9,
                34,
                "NORMAL",
                "Y",
                1,
                "SCREENING 1",
                "SCREENING",
                "2013-10-01T12:50",
                -7
            ],
            [
                "CDISCPILOT01",
                "LB",
                "CDISC004",
                6,
                "BILI",
                "Bilirubin",
                "CHEMISTRY",
                "0.5",
                "mg/dL",
                "0.2",
                "1.2",
                "8.55",
                8.55,
                "umol/L",
                3,
                21,
                "NORMAL",
                "Y",
                1,
                "SCREENING 1",
                "SCREENING",
                "2013-10-01T12:50",
                -7
            ],
            [
                "CDISCPILOT01",
                "LB",
                "CDISC004",
                7,
                "UREAN",
                "Urea Nitrogen",
                "CHEMISTRY",
                "14",
                "mg/dL",
                "4",
                "24",
                "4.998",
                4.998,
                "mmol/L",
                1.4,
                8.6,
                "NORMAL",
                "Y",
                1,
                "SCREENING 1",
                "SCREENING",
                "2013-10-01T12:50",
                -7
            ],
            [
                "CDISCPILOT01",
                "LB",
                "CDISC004",
                8,
                "CA",
                "Calcium",
                "CHEMISTRY",
                "9.6",
                "mg/dL",
                "8.4",
                "10.3",
                "2.3952",
                2.3952,
                "mmol/L",
                2.1,
                2.57,
                "NORMAL",
                "Y",
                1,
                "SCREENING 1",
                "SCREENING",
                "2013-10-01T12:50",
                -7
            ],
            [
                "CDISCPILOT01",
                "LB",
                "CDISC004",
                9,
                "CHOL",
                "Cholesterol",
                "CHEMISTRY",
                "227",
                "mg/dL",
                "156",
                "300",
                "5.87022",
                5.87022,
                "mmol/L",
                4.03,
                7.76,
                "NORMAL",
                "Y",
                1,
                "SCREENING 1",
                "SCREENING",
                "2013-10-01T12:50",
                -7
            ],
            [
                "CDISCPILOT01",
                "LB",
                "CDISC004",
                10,
                "CK",
                "Creatine Kinase",
                "CHEMISTRY",
                "142",
                "U/L",
                "21",
                "169",
                "142",
                142,
                "U/L",
                21,
                169,
                "NORMAL",
                "Y",
                1,
                "SCREENING 1",
                "SCREENING",
                "2013-10-01T12:50",
                -7
            ],
            [
                "CDISCPILOT01",
                "LB",
                "CDISC004",
                11,
                "CL",
                "Chloride",
                "CHEMISTRY",
                "104",
                "mEq/L",
                "94",
                "112",
                "104",
                104,
                "mmol/L",
                94,
                112,
                "NORMAL",
                "Y",
                1,
                "SCREENING 1",
                "SCREENING",
                "2013-10-01T12:50",
                -7
            ],
            [
                "CDISCPILOT01",
                "LB",
                "CDISC004",
                13,
                "CREAT",
                "Creatinine",
                "CHEMISTRY",
                "1.1",
                "mg/dL",
                "0.7",
                "1.4",
                "97.24",
                97.24,
                "umol/L",
                62,
                124,
                "NORMAL",
                "Y",
                1,
                "SCREENING 1",
                "SCREENING",
                "2013-10-01T12:50",
                -7
            ],
            [
                "CDISCPILOT01",
                "LB",
                "CDISC004",
                15,
                "GGT",
                "Gamma Glutamyl Transferase",
                "CHEMISTRY",
                "10",
                "U/L",
                "5",
                "50",
                "10",
                10,
                "U/L",
                5,
                50,
                "NORMAL",
                "Y",
                1,
                "SCREENING 1",
                "SCREENING",
                "2013-10-01T12:50",
                -7
            ],
            [
                "CDISCPILOT01",
                "LB",
                "CDISC004",
                16,
                "GLUC",
                "Glucose",
                "CHEMISTRY",
                "85",
                "mg/dL",
                "50",
                "250",
                "4.71835",
                4.71835,
                "mmol/L",
                2.8,
                13.9,
                "NORMAL",
                "Y",
                1,
                "SCREENING 1",
                "SCREENING",
                "2013-10-01T12:50",
                -7
            ],
            [
                "CDISCPILOT01",
                "LB",
                "CDISC004",
                19,
                "K",
                "Potassium",
                "CHEMISTRY",
                "3.6",
                "mEq/L",
                "3.4",
                "5.4",
                "3.6",
                3.6,
                "mmol/L",
                3.4,
                5.4,
                "NORMAL",
                "Y",
                1,
                "SCREENING 1",
                "SCREENING",
                "2013-10-01T12:50",
                -7
            ],
            [
                "CDISCPILOT01",
                "LB",
                "CDISC004",
                26,
                "SODIUM",
                "Sodium",
                "CHEMISTRY",
                "138",
                "mEq/L",
                "135",
                "145",
                "138",
                138,
                "mmol/L",
                135,
                145,
                "NORMAL",
                "Y",
                1,
                "SCREENING 1",
                "SCREENING",
                "2013-10-01T12:50",
                -7
            ],
            [
                "CDISCPILOT01",
                "LB",
                "CDISC004",
                28,
                "PHOS",
                "Phosphate",
                "CHEMISTRY",
                "4.0",
                "mg/dL",
                "2.2",
                "5.1",
                "1.2916",
                1.2916,
                "mmol/L",
                0.71,
                1.65,
                "NORMAL",
                "Y",
                1,
                "SCREENING 1",
                "SCREENING",
                "2013-10-01T12:50",
                -7
            ],
            [
                "CDISCPILOT01",
                "LB",
                "CDISC004",
                30,
                "PROT",
                "Protein",
                "CHEMISTRY",
                "7.4",
                "g/dL",
                "6",
                "8",
                "74",
                74,
                "g/L",
                60,
                80,
                "NORMAL",
                "Y",
                1,
                "SCREENING 1",
                "SCREENING",
                "2013-10-01T12:50",
                -7
            ],
            [
                "CDISCPILOT01",
                "LB",
                "CDISC004",
                34,
                "URATE",
                "Urate",
                "CHEMISTRY",
                "5.1",
                "mg/dL",
                "2.5",
                "7.5",
                "303.348",
                303.348,
                "umol/L",
                149,
                446,
                "NORMAL",
                "Y",
                1,
                "SCREENING 1",
                "SCREENING",
                "2013-10-01T12:50",
                -7
            ],
            [
                "CDISCPILOT01",
                "LB",
                "CDISC004",
                38,
                "ALB",
                "Albumin",
                "CHEMISTRY",
                "4.1",
                "g/dL",
                "3.3",
                "4.9",
                "41",
                41,
                "g/L",
                33,
                49,
                "NORMAL",
                "",
                4,
                "WEEK 2",
                "TREATMENT",
                "2013-10-24T10:41",
                17
            ],
            [
                "CDISCPILOT01",
                "LB",
                "CDISC004",
                39,
                "ALP",
                "Alkaline Phosphatase",
                "CHEMISTRY",
                "61",
                "U/L",
                "35",
                "115",
                "61",
                61,
                "U/L",
                35,
                115,
                "NORMAL",
                "",
                4,
                "WEEK 2",
                "TREATMENT",
                "2013-10-24T10:41",
                17
            ],
            [
                "CDISCPILOT01",
                "LB",
                "CDISC004",
                40,
                "ALT",
                "Alanine Aminotransferase",
                "CHEMISTRY",
                "9",
                "U/L",
                "6",
                "34",
                "9",
                9,
                "U/L",
                6,
                34,
                "NORMAL",
                "",
                4,
                "WEEK 2",
                "TREATMENT",
                "2013-10-24T10:41",
                17
            ],
            [
                "CDISCPILOT01",
                "LB",
                "CDISC004",
                41,
                "AST",
                "Aspartate Aminotransferase",
                "CHEMISTRY",
                "18",
                "U/L",
                "9",
                "34",
                "18",
                18,
                "U/L",
                9,
                34,
                "NORMAL",
                "",
                4,
                "WEEK 2",
                "TREATMENT",
                "2013-10-24T10:41",
                17
            ],
            [
                "CDISCPILOT01",
                "LB",
                "CDISC004",
                43,
                "BILI",
                "Bilirubin",
                "CHEMISTRY",
                "0.4",
                "mg/dL",
                "0.2",
                "1.2",
                "6.84",
                6.84,
                "umol/L",
                3,
                21,
                "NORMAL",
