{
  "clinicalData":{"studyOID":"cdisc.com/CDISCPILOT01","metaDataVersionOID":"MDV.MSGv2.0.SDTMIG.3.3.SDTM.1.7","itemGroupData": {"IG.LB":{"records":1913,"name":"LB","label":"Laboratory Test Results","items":[{"OID": "IT.LB.STUDYID", "name":"STUDYID", "label":"Study Identifier", "type":"string"},{"OID": "IT.LB.DOMAIN", "name":"DOMAIN", "label":"Domain Abbreviation", "type":"string"},{"OID": "IT.LB.USUBJID", "name":"USUBJID", "label":"Unique Subject Identifier", "type":"string"},{"OID": "IT.LB.LBSEQ", "name":"LBSEQ", "label":"Sequence Number", "type":"integer"},{"OID": "IT.LB.LBTESTCD", "name":"LBTESTCD", "label":"Lab Test or Examination Short Name", "type":"string"},{"OID": "IT.LB.LBTEST", "name":"LBTEST", "label":"Lab Test or Examination Name", "type":"string"},{"OID": "IT.LB.LBCAT", "name":"LBCAT", "label":"Category for Lab Test", "type":"string"},{"OID": "IT.LB.LBORRES", "name":"LBORRES", "label":"Result or Finding in Original Units", "type":"string"},{"OID": "IT.LB.LBORRESU", "name":"LBORRESU", "label":"Original Units", "type":"string"},{"OID": "IT.LB.LBORNRLO", "name":"LBORNRLO", "label":"Reference Range Lower Limit in Orig Unit", "type":"string"},{"OID": "IT.LB.LBORNRHI", "name":"LBORNRHI", "label":"Reference Range Upper Limit in Orig Unit", "type":"string"},{"OID": "IT.LB.LBSTRESC", "name":"LBSTRESC", "label":"Character Result/Finding in Std Format", "type":"string"},{"OID": "IT.LB.LBSTRESN", "name":"LBSTRESN", "label":"Numeric Result/Finding in Standard Units", "type":"float"},{"OID": "IT.LB.LBSTRESU", "name":"LBSTRESU", "label":"Standard Units", "type":"string"},{"OID": "IT.LB.LBSTNRLO", "name":"LBSTNRLO", "label":"Reference Range Lower Limit-Std Units", "type":"float"},{"OID": "IT.LB.LBSTNRHI", "name":"LBSTNRHI", "label":"Reference Range Upper Limit-Std Units", "type":"float"},{"OID": "IT.LB.LBNRIND", "name":"LBNRIND", "label":"Reference Range Indicator", "type":"string"},{"OID": "IT.LB.LBLOBXFL", "name":"LBLOBXFL", "label":"Last Observation Before Exposure Flag", "type":"string"},{"OID": "IT.LB.VISITNUM", "name":"VISITNUM", "label":"Visit Number", "type":"float"},{"OID": "IT.LB.VISIT", "name":"VISIT", "label":"Visit Name", "type":"string"},{"OID": "IT.LB.EPOCH", "name":"EPOCH", "label":"Epoch", "type":"string"},{"OID": "IT.LB.LBDTC", "name":"LBDTC", "label":"Date/Time of Specimen Collection", "type":"string"},{"OID": "IT.LB.LBDY", "name":"LBDY", "label":"Study Day of Specimen Collection", "type":"integer"}],"itemData": [
["CDISCPILOT01","LB","CDISC001",1,"ALB","Albumin","CHEMISTRY","3.9","g/dL","3.5","4.6","39",39,"g/L",35,46,"NORMAL","Y",1,"SCREENING 1","SCREENING","2012-11-23T11:20",-7],
["CDISCPILOT01","LB","CDISC001",2,"ALP","Alkaline Phosphatase","CHEMISTRY","93","U/L","35","115","93",93,"U/L",35,115,"NORMAL","Y",1,"SCREENING 1","SCREENING","2012-11-23T11:20",-7],
["CDISCPILOT01","LB","CDISC001",3,"ALT","Alanine Aminotransferase","CHEMISTRY","18","U/L","6","35","18",18,"U/L",6,35,"NORMAL","Y",1,"SCREENING 1","SCREENING","2012-11-23T11:20",-7],
["CDISCPILOT01","LB","CDISC001",4,"AST","Aspartate Aminotransferase","CHEMISTRY","26","U/L","11","36","26",26,"U/L",11,36,"NORMAL","Y",1,"SCREENING 1","SCREENING","2012-11-23T11:20",-7],
["CDISCPILOT01","LB","CDISC001",6,"BILI","Bilirubin","CHEMISTRY","0.5","mg/dL","0.2","1.2","8.55",8.55,"umol/L",3,21,"NORMAL","Y",1,"SCREENING 1","SCREENING","2012-11-23T11:20",-7],
["CDISCPILOT01","LB","CDISC001",7,"UREAN","Urea Nitrogen","CHEMISTRY","21","mg/dL","4","24","7.497",7.497,"mmol/L",1.4,8.6,"NORMAL","Y",1,"SCREENING 1","SCREENING","2012-11-23T11:20",-7],
["CDISCPILOT01","LB","CDISC001",8,"CA","Calcium","CHEMISTRY","9.1","mg/dL","8.4","10.3","2.27045",2.27045,"mmol/L",2.1,2.57,"NORMAL","Y",1,"SCREENING 1","SCREENING","2012-11-23T11:20",-7],
["CDISCPILOT01","LB","CDISC001",9,"CHOL","Cholesterol","CHEMISTRY","254","mg/dL","149","286","6.56844",6.56844,"mmol/L",3.85,7.4,"NORMAL","Y",1,"SCREENING 1","SCREENING","2012-11-23T11:20",-7],
["CDISCPILOT01","LB","CDISC001",10,"CK","Creatine Kinase","CHEMISTRY","79","U/L","22","198","79",79,"U/L",22,198,"NORMAL","Y",1,"SCREENING 1","SCREENING","2012-11-23T11:20",-7],
["CDISCPILOT01","LB","CDISC001",11,"CL","Chloride","CHEMISTRY","102","mEq/L","94","112","102",102,"mmol/L",94,112,"NORMAL","Y",1,"SCREENING 1","SCREENING","2012-11-23T11:20",-7],
["CDISCPILOT01","LB","CDISC001",13,"CREAT","Creatinine","CHEMISTRY","1.3","mg/dL","0.8","1.6","114.92",114.92,"umol/L",71,141,"NORMAL","Y",1,"SCREENING 1","SCREENING","2012-11-23T11:20",-7],
["CDISCPILOT01","LB","CDISC001",15,"GGT","Gamma Glutamyl Transferase","CHEMISTRY","31","U/L","10","50","31",31,"U/L",10,50,"NORMAL","Y",1,"SCREENING 1","SCREENING","2012-11-23T11:20",-7],
["CDISCPILOT01","LB","CDISC001",16,"GLUC","Glucose","CHEMISTRY","74","mg/dL","50","250","4.10774",4.10774,"mmol/L",2.8,13.9,"NORMAL","Y",1,"SCREENING 1","SCREENING","2012-11-23T11:20",-7],
["CDISCPILOT01","LB","CDISC001",19,"K","Potassium","CHEMISTRY","4.3","mEq/L","3.4","5.4","4.3",4.3,"mmol/L",3.4,5.4,"NORMAL","Y",1,"SCREENING 1","SCREENING","2012-11-23T11:20",-7],
["CDISCPILOT01","LB","CDISC001",26,"SODIUM","Sodium","CHEMISTRY","139","mEq/L","135","145","139",139,"mmol/L",135,145,"NORMAL","Y",1,"SCREENING 1","SCREENING","2012-11-23T11:20",-7],
["CDISCPILOT01","LB","CDISC001",28,"PHOS","Phosphate","CHEMISTRY","3.4","mg/dL","2.2","5.1","1.09786",1.09786,"mmol/L",0.71,1.65,"NORMAL","Y",1,"SCREENING 1","SCREENING","2012-11-23T11:20",-7],
["CDISCPILOT01","LB","CDISC001",30,"PROT","Protein","CHEMISTRY","6.7","g/dL","6","8","67",67,"g/L",60,80,"NORMAL","Y",1,"SCREENING 1","SCREENING","2012-11-23T11:20",-7],
["CDISCPILOT01","LB","CDISC001",34,"URATE","Urate","CHEMISTRY","4.9","mg/dL","2.5","7.5","291.452",291.452,"umol/L",149,446,"NORMAL","Y",1,"SCREENING 1","SCREENING","2012-11-23T11:20",-7],
["CDISCPILOT01","LB","CDISC001",38,"ALB","Albumin","CHEMISTRY","3.6","g/dL","3.5","4.6","36",36,"g/L",35,46,"NORMAL","",4,"WEEK 2","TREATMENT","2012-12-13T14:05",14],
["CDISCPILOT01","LB","CDISC001",39,"ALP","Alkaline Phosphatase","CHEMISTRY","88","U/L","35","115","88",88,"U/L",35,115,"NORMAL","",4,"WEEK 2","TREATMENT","2012-12-13T14:05",14],
["CDISCPILOT01","LB","CDISC001",40,"ALT","Alanine Aminotransferase","CHEMISTRY","15","U/L","6","35","15",15,"U/L",6,35,"NORMAL","",4,"WEEK 2","TREATMENT","2012-12-13T14:05",14],
["CDISCPILOT01","LB","CDISC001",41,"AST","Aspartate Aminotransferase","CHEMISTRY","25","U/L","11","36","25",25,"U/L",11,36,"NORMAL","",4,"WEEK 2","TREATMENT","2012-12-13T14:05",14],
["CDISCPILOT01","LB","CDISC001",43,"BILI","Bilirubin","CHEMISTRY","0.4","mg/dL","0.2","1.2","6.84",6.84,"umol/L",3,21,"NORMAL","",4,"WEEK 2","TREATMENT","2012-12-13T14:05",14],
["CDISCPILOT01","LB","CDISC001",44,"UREAN","Urea Nitrogen","CHEMISTRY","22","mg/dL","4","24","7.854",7.854,"mmol/L",1.4,8.6,"NORMAL","",4,"WEEK 2","TREATMENT","2012-12-13T14:05",14],
["CDISCPILOT01","LB","CDISC001",45,"CA","Calcium","CHEMISTRY","8.9","mg/dL","8.4","10.3","2.22055",2.22055,"mmol/L",2.1,2.57,"NORMAL","",4,"WEEK 2","TREATMENT","2012-12-13T14:05",14],
["CDISCPILOT01","LB","CDISC001",46,"CHOL","Cholesterol","CHEMISTRY","226","mg/dL","149","286","5.84436",5.84436,"mmol/L",3.85,7.4,"NORMAL","",4,"WEEK 2","TREATMENT","2012-12-13T14:05",14],
["CDISCPILOT01","LB","CDISC001",47,"CK","Creatine Kinase","CHEMISTRY","73","U/L","22","198","73",73,"U/L",22,198,"NORMAL","",4,"WEEK 2","TREATMENT","2012-12-13T14:05",14],
["CDISCPILOT01","LB","CDISC001",48,"CL","Chloride","CHEMISTRY","107","mEq/L","94","112","107",107,"mmol/L",94,112,"NORMAL","",4,"WEEK 2","TREATMENT","2012-12-13T14:05",14],
["CDISCPILOT01","LB","CDISC001",50,"CREAT","Creatinine","CHEMISTRY","1.3","mg/dL","0.8","1.6","114.92",114.92,"umol/L",71,141,"NORMAL","",4,"WEEK 2","TREATMENT","2012-12-13T14:05",14],
["CDISCPILOT01","LB","CDISC001",52,"GGT","Gamma Glutamyl Transferase","CHEMISTRY","31","U/L","10","50","31",31,"U/L",10,50,"NORMAL","",4,"WEEK 2","TREATMENT","2012-12-13T14:05",14],
["CDISCPILOT01","LB","CDISC001",53,"GLUC","Glucose","CHEMISTRY","85","mg/dL","50","250","4.71835",4.71835,"mmol/L",2.8,13.9,"NORMAL","",4,"WEEK 2","TREATMENT","2012-12-13T14:05",14],
["CDISCPILOT01","LB","CDISC001",56,"K","Potassium","CHEMISTRY","5.1","mEq/L","3.4","5.4","5.1",5.1,"mmol/L",3.4,5.4,"NORMAL","",4,"WEEK 2","TREATMENT","2012-12-13T14:05",14],
["CDISCPILOT01","LB","CDISC001",63,"SODIUM","Sodium","CHEMISTRY","142","mEq/L","135","145","142",142,"mmol/L",135,145,"NORMAL","",4,"WEEK 2","TREATMENT","2012-12-13T14:05",14],
["CDISCPILOT01","LB","CDISC001",65,"PHOS","Phosphate","CHEMISTRY","3.7","mg/dL","2.2","5.1","1.19473",1.19473,"mmol/L",0.71,1.65,"NORMAL","",4,"WEEK 2","TREATMENT","2012-12-13T14:05",14],
["CDISCPILOT01","LB","CDISC001",67,"PROT","Protein","CHEMISTRY","6.3","g/dL","6","8","63",63,"g/L",60,80,"NORMAL","",4,"WEEK 2","TREATMENT","2012-12-13T14:05",14],
["CDISCPILOT01","LB","CDISC001",70,"URATE","Urate","CHEMISTRY","4.4","mg/dL","2.5","7.5","261.712",261.712,"umol/L",149,446,"NORMAL","",4,"WEEK 2","TREATMENT","2012-12-13T14:05",14],
["CDISCPILOT01","LB","CDISC001",73,"ALB","Albumin","CHEMISTRY","3.5","g/dL","3.5","4.6","35",35,"g/L",35,46,"NORMAL","",5,"WEEK 4","TREATMENT","2012-12-26T08:44",27],
["CDISCPILOT01","LB","CDISC001",74,"ALP","Alkaline Phosphatase","CHEMISTRY","91","U/L","35","115","91",91,"U/L",35,115,"NORMAL","",5,"WEEK 4","TREATMENT","2012-12-26T08:44",27],
["CDISCPILOT01","LB","CDISC001",75,"ALT","Alanine Aminotransferase","CHEMISTRY","13","U/L","6","35","13",13,"U/L",6,35,"NORMAL","",5,"WEEK 4","TREATMENT","2012-12-26T08:44",27],
["CDISCPILOT01","LB","CDISC001",76,"AST","Aspartate Aminotransferase","CHEMISTRY","20","U/L","11","36","20",20,"U/L",11,36,"NORMAL","",5,"WEEK 4","TREATMENT","2012-12-26T08:44",27],
["CDISCPILOT01","LB","CDISC001",78,"BILI","Bilirubin","CHEMISTRY","0.4","mg/dL","0.2","1.2","6.84",6.84,"umol/L",3,21,"NORMAL","",5,"WEEK 4","TREATMENT","2012-12-26T08:44",27],
["CDISCPILOT01","LB","CDISC001",79,"UREAN","Urea Nitrogen","CHEMISTRY","20","mg/dL","4","24","7.14",7.14,"mmol/L",1.4,8.6,"NORMAL","",5,"WEEK 4","TREATMENT","2012-12-26T08:44",27],
["CDISCPILOT01","LB","CDISC001",80,"CA","Calcium","CHEMISTRY","9.2","mg/dL","8.4","10.3","2.2954",2.2954,"mmol/L",2.1,2.57,"NORMAL","",5,"WEEK 4","TREATMENT","2012-12-26T08:44",27],
["CDISCPILOT01","LB","CDISC001",81,"CHOL","Cholesterol","CHEMISTRY","219","mg/dL","149","286","5.66334",5.66334,"mmol/L",3.85,7.4,"NORMAL","",5,"WEEK 4","TREATMENT","2012-12-26T08:44",27],
["CDISCPILOT01","LB","CDISC001",82,"CK","Creatine Kinase","CHEMISTRY","75","U/L","22","198","75",75,"U/L",22,198,"NORMAL","",5,"WEEK 4","TREATMENT","2012-12-26T08:44",27],
["CDISCPILOT01","LB","CDISC001",83,"CL","Chloride","CHEMISTRY","106","mEq/L","94","112","106",106,"mmol/L",94,112,"NORMAL","",5,"WEEK 4","TREATMENT","2012-12-26T08:44",27],
["CDISCPILOT01","LB","CDISC001",84,"CREAT","Creatinine","CHEMISTRY","1.3","mg/dL","0.8","1.6","114.92",114.92,"umol/L",71,141,"NORMAL","",5,"WEEK 4","TREATMENT","2012-12-26T08:44",27],
["CDISCPILOT01","LB","CDISC001",86,"GGT","Gamma Glutamyl Transferase","CHEMISTRY","30","U/L","10","50","30",30,"U/L",10,50,"NORMAL","",5,"WEEK 4","TREATMENT","2012-12-26T08:44",27],
["CDISCPILOT01","LB","CDISC001",87,"GLUC","Glucose","CHEMISTRY","<40","mg/dL","50","250","<2.2204",null,"mmol/L",2.8,13.9,"LOW","",5,"WEEK 4","TREATMENT","2012-12-26T08:44",27],
["CDISCPILOT01","LB","CDISC001",90,"K","Potassium","CHEMISTRY","4.7","mEq/L","3.4","5.4","4.7",4.7,"mmol/L",3.4,5.4,"NORMAL","",5,"WEEK 4","TREATMENT","2012-12-26T08:44",27],
["CDISCPILOT01","LB","CDISC001",96,"SODIUM","Sodium","CHEMISTRY","140","mEq/L","135","145","140",140,"mmol/L",135,145,"NORMAL","",5,"WEEK 4","TREATMENT","2012-12-26T08:44",27],
["CDISCPILOT01","LB","CDISC001",97,"PHOS","Phosphate","CHEMISTRY","3.1","mg/dL","2.2","5.1","1.00099",1.00099,"mmol/L",0.71,1.65,"NORMAL","",5,"WEEK 4","TREATMENT","2012-12-26T08:44",27],
["CDISCPILOT01","LB","CDISC001",99,"PROT","Protein","CHEMISTRY","6.3","g/dL","6","8","63",63,"g/L",60,80,"NORMAL","",5,"WEEK 4","TREATMENT","2012-12-26T08:44",27],
["CDISCPILOT01","LB","CDISC001",101,"URATE","Urate","CHEMISTRY","4.7","mg/dL","2.5","7.5","279.556",279.556,"umol/L",149,446,"NORMAL","",5,"WEEK 4","TREATMENT","2012-12-26T08:44",27],
["CDISCPILOT01","LB","CDISC001",103,"ALB","Albumin","CHEMISTRY","3.7","g/dL","3.5","4.6","37",37,"g/L",35,46,"NORMAL","",5.01,"WEEK 4: UNSCHEDULED 01","TREATMENT","2012-12-28T09:27",29],
["CDISCPILOT01","LB","CDISC001",104,"ALP","Alkaline Phosphatase","CHEMISTRY","101","U/L","35","115","101",101,"U/L",35,115,"NORMAL","",5.01,"WEEK 4: UNSCHEDULED 01","TREATMENT","2012-12-28T09:27",29],
["CDISCPILOT01","LB","CDISC001",105,"ALT","Alanine Aminotransferase","CHEMISTRY","16","U/L","6","35","16",16,"U/L",6,35,"NORMAL","",5.01,"WEEK 4: UNSCHEDULED 01","TREATMENT","2012-12-28T09:27",29],
["CDISCPILOT01","LB","CDISC001",106,"AST","Aspartate Aminotransferase","CHEMISTRY","23","U/L","11","36","23",23,"U/L",11,36,"NORMAL","",5.01,"WEEK 4: UNSCHEDULED 01","TREATMENT","2012-12-28T09:27",29],
["CDISCPILOT01","LB","CDISC001",107,"BILI","Bilirubin","CHEMISTRY","0.3","mg/dL","0.2","1.2","5.13",5.13,"umol/L",3,21,"NORMAL","",5.01,"WEEK 4: UNSCHEDULED 01","TREATMENT","2012-12-28T09:27",29],
["CDISCPILOT01","LB","CDISC001",108,"UREAN","Urea Nitrogen","CHEMISTRY","21","mg/dL","4","24","7.497",7.497,"mmol/L",1.4,8.6,"NORMAL","",5.01,"WEEK 4: UNSCHEDULED 01","TREATMENT","2012-12-28T09:27",29],
["CDISCPILOT01","LB","CDISC001",109,"CA","Calcium","CHEMISTRY","9.6","mg/dL","8.4","10.3","2.3952",2.3952,"mmol/L",2.1,2.57,"NORMAL","",5.01,"WEEK 4: UNSCHEDULED 01","TREATMENT","2012-12-28T09:27",29],
["CDISCPILOT01","LB","CDISC001",110,"CHOL","Cholesterol","CHEMISTRY","235","mg/dL","149","286","6.0771",6.0771,"mmol/L",3.85,7.4,"NORMAL","",5.01,"WEEK 4: UNSCHEDULED 01","TREATMENT","2012-12-28T09:27",29],
["CDISCPILOT01","LB","CDISC001",111,"CK","Creatine Kinase","CHEMISTRY","58","U/L","22","198","58",58,"U/L",22,198,"NORMAL","",5.01,"WEEK 4: UNSCHEDULED 01","TREATMENT","2012-12-28T09:27",29],
["CDISCPILOT01","LB","CDISC001",112,"CREAT","Creatinine","CHEMISTRY","1.3","mg/dL","0.8","1.6","114.92",114.92,"umol/L",71,141,"NORMAL","",5.01,"WEEK 4: UNSCHEDULED 01","TREATMENT","2012-12-28T09:27",29],
["CDISCPILOT01","LB","CDISC001",113,"GGT","Gamma Glutamyl Transferase","CHEMISTRY","34","U/L","10","50","34",34,"U/L",10,50,"NORMAL","",5.01,"WEEK 4: UNSCHEDULED 01","TREATMENT","2012-12-28T09:27",29],
["CDISCPILOT01","LB","CDISC001",114,"GLUC","Glucose","CHEMISTRY","48","mg/dL","50","250","2.66448",2.66448,"mmol/L",2.8,13.9,"LOW","",5.01,"WEEK 4: UNSCHEDULED 01","TREATMENT","2012-12-28T09:27",29],
["CDISCPILOT01","LB","CDISC001",115,"PHOS","Phosphate","CHEMISTRY","2.9","mg/dL","2.2","5.1","0.93641",0.93641,"mmol/L",0.71,1.65,"NORMAL","",5.01,"WEEK 4: UNSCHEDULED 01","TREATMENT","2012-12-28T09:27",29],
["CDISCPILOT01","LB","CDISC001",116,"PROT","Protein","CHEMISTRY","6.9","g/dL","6","8","69",69,"g/L",60,80,"NORMAL","",5.01,"WEEK 4: UNSCHEDULED 01","TREATMENT","2012-12-28T09:27",29],
["CDISCPILOT01","LB","CDISC001",117,"URATE","Urate","CHEMISTRY","4.4","mg/dL","2.5","7.5","261.712",261.712,"umol/L",149,446,"NORMAL","",5.01,"WEEK 4: UNSCHEDULED 01","TREATMENT","2012-12-28T09:27",29],
["CDISCPILOT01","LB","CDISC001",118,"ALB","Albumin","CHEMISTRY","3.7","g/dL","3.5","4.6","37",37,"g/L",35,46,"NORMAL","",7,"WEEK 6","TREATMENT","2013-01-10T15:20",42],
["CDISCPILOT01","LB","CDISC001",119,"ALP","Alkaline Phosphatase","CHEMISTRY","98","U/L","35","115","98",98,"U/L",35,115,"NORMAL","",7,"WEEK 6","TREATMENT","2013-01-10T15:20",42],
["CDISCPILOT01","LB","CDISC001",120,"ALT","Alanine Aminotransferase","CHEMISTRY","18","U/L","6","35","18",18,"U/L",6,35,"NORMAL","",7,"WEEK 6","TREATMENT","2013-01-10T15:20",42],
["CDISCPILOT01","LB","CDISC001",121,"AST","Aspartate Aminotransferase","CHEMISTRY","25","U/L","11","36","25",25,"U/L",11,36,"NORMAL","",7,"WEEK 6","TREATMENT","2013-01-10T15:20",42],
["CDISCPILOT01","LB","CDISC001",123,"BILI","Bilirubin","CHEMISTRY","0.4","mg/dL","0.2","1.2","6.84",6.84,"umol/L",3,21,"NORMAL","",7,"WEEK 6","TREATMENT","2013-01-10T15:20",42],
["CDISCPILOT01","LB","CDISC001",124,"UREAN","Urea Nitrogen","CHEMISTRY","25","mg/dL","4","24","8.925",8.925,"mmol/L",1.4,8.6,"HIGH","",7,"WEEK 6","TREATMENT","2013-01-10T15:20",42],
["CDISCPILOT01","LB","CDISC001",125,"CA","Calcium","CHEMISTRY","9.2","mg/dL","8.4","10.3","2.2954",2.2954,"mmol/L",2.1,2.57,"NORMAL","",7,"WEEK 6","TREATMENT","2013-01-10T15:20",42],
["CDISCPILOT01","LB","CDISC001",126,"CHOL","Cholesterol","CHEMISTRY","242","mg/dL","149","286","6.25812",6.25812,"mmol/L",3.85,7.4,"NORMAL","",7,"WEEK 6","TREATMENT","2013-01-10T15:20",42],
["CDISCPILOT01","LB","CDISC001",127,"CK","Creatine Kinase","CHEMISTRY","78","U/L","22","198","78",78,"U/L",22,198,"NORMAL","",7,"WEEK 6","TREATMENT","2013-01-10T15:20",42],
["CDISCPILOT01","LB","CDISC001",128,"CL","Chloride","CHEMISTRY","108","mEq/L","94","112","108",108,"mmol/L",94,112,"NORMAL","",7,"WEEK 6","TREATMENT","2013-01-10T15:20",42],
["CDISCPILOT01","LB","CDISC001",129,"CREAT","Creatinine","CHEMISTRY","1.5","mg/dL","0.8","1.6","132.6",132.6,"umol/L",71,141,"NORMAL","",7,"WEEK 6","TREATMENT","2013-01-10T15:20",42],
["CDISCPILOT01","LB","CDISC001",131,"GGT","Gamma Glutamyl Transferase","CHEMISTRY","37","U/L","10","50","37",37,"U/L",10,50,"NORMAL","",7,"WEEK 6","TREATMENT","2013-01-10T15:20",42],
["CDISCPILOT01","LB","CDISC001",132,"GLUC","Glucose","CHEMISTRY","91","mg/dL","50","250","5.05141",5.05141,"mmol/L",2.8,13.9,"NORMAL","",7,"WEEK 6","TREATMENT","2013-01-10T15:20",42],
["CDISCPILOT01","LB","CDISC001",135,"K","Potassium","CHEMISTRY","5.3","mEq/L","3.4","5.4","5.3",5.3,"mmol/L",3.4,5.4,"NORMAL","",7,"WEEK 6","TREATMENT","2013-01-10T15:20",42],
["CDISCPILOT01","LB","CDISC001",141,"SODIUM","Sodium","CHEMISTRY","144","mEq/L","135","145","144",144,"mmol/L",135,145,"NORMAL","",7,"WEEK 6","TREATMENT","2013-01-10T15:20",42],
["CDISCPILOT01","LB","CDISC001",142,"PHOS","Phosphate","CHEMISTRY","3.7","mg/dL","2.2","5.1","1.19473",1.19473,"mmol/L",0.71,1.65,"NORMAL","",7,"WEEK 6","TREATMENT","2013-01-10T15:20",42],
["CDISCPILOT01","LB","CDISC001",144,"PROT","Protein","CHEMISTRY","7.0","g/dL","6","8","70",70,"g/L",60,80,"NORMAL","",7,"WEEK 6","TREATMENT","2013-01-10T15:20",42],
["CDISCPILOT01","LB","CDISC001",146,"URATE","Urate","CHEMISTRY","5.2","mg/dL","2.5","7.5","309.296",309.296,"umol/L",149,446,"NORMAL","",7,"WEEK 6","TREATMENT","2013-01-10T15:20",42],
["CDISCPILOT01","LB","CDISC001",148,"ALB","Albumin","CHEMISTRY","3.9","g/dL","3.5","4.6","39",39,"g/L",35,46,"NORMAL","",8,"WEEK 8","TREATMENT","2013-01-23T12:13",55],
["CDISCPILOT01","LB","CDISC001",149,"ALP","Alkaline Phosphatase","CHEMISTRY","98","U/L","35","115","98",98,"U/L",35,115,"NORMAL","",8,"WEEK 8","TREATMENT","2013-01-23T12:13",55],
["CDISCPILOT01","LB","CDISC001",150,"ALT","Alanine Aminotransferase","CHEMISTRY","16","U/L","6","35","16",16,"U/L",6,35,"NORMAL","",8,"WEEK 8","TREATMENT","2013-01-23T12:13",55],
["CDISCPILOT01","LB","CDISC001",151,"AST","Aspartate Aminotransferase","CHEMISTRY","25","U/L","11","36","25",25,"U/L",11,36,"NORMAL","",8,"WEEK 8","TREATMENT","2013-01-23T12:13",55],
["CDISCPILOT01","LB","CDISC001",153,"BILI","Bilirubin","CHEMISTRY","0.5","mg/dL","0.2","1.2","8.55",8.55,"umol/L",3,21,"NORMAL","",8,"WEEK 8","TREATMENT","2013-01-23T12:13",55],
["CDISCPILOT01","LB","CDISC001",154,"UREAN","Urea Nitrogen","CHEMISTRY","22","mg/dL","4","24","7.854",7.854,"mmol/L",1.4,8.6,"NORMAL","",8,"WEEK 8","TREATMENT","2013-01-23T12:13",55],
["CDISCPILOT01","LB","CDISC001",155,"CA","Calcium","CHEMISTRY","8.9","mg/dL","8.4","10.3","2.22055",2.22055,"mmol/L",2.1,2.57,"NORMAL","",8,"WEEK 8","TREATMENT","2013-01-23T12:13",55],
["CDISCPILOT01","LB","CDISC001",156,"CHOL","Cholesterol","CHEMISTRY","252","mg/dL","149","286","6.51672",6.51672,"mmol/L",3.85,7.4,"NORMAL","",8,"WEEK 8","TREATMENT","2013-01-23T12:13",55],
["CDISCPILOT01","LB","CDISC001",157,"CK","Creatine Kinase","CHEMISTRY","94","U/L","22","198","94",94,"U/L",22,198,"NORMAL","",8,"WEEK 8","TREATMENT","2013-01-23T12:13",55],
["CDISCPILOT01","LB","CDISC001",158,"CL","Chloride","CHEMISTRY","104","mEq/L","94","112","104",104,"mmol/L",94,112,"NORMAL","",8,"WEEK 8","TREATMENT","2013-01-23T12:13",55],
["CDISCPILOT01","LB","CDISC001",160,"CREAT","Creatinine","CHEMISTRY","1.3","mg/dL","0.8","1.6","114.92",114.92,"umol/L",71,141,"NORMAL","",8,"WEEK 8","TREATMENT","2013-01-23T12:13",55],
["CDISCPILOT01","LB","CDISC001",162,"GGT","Gamma Glutamyl Transferase","CHEMISTRY","34","U/L","10","50","34",34,"U/L",10,50,"NORMAL","",8,"WEEK 8","TREATMENT","2013-01-23T12:13",55],
["CDISCPILOT01","LB","CDISC001",163,"GLUC","Glucose","CHEMISTRY","79","mg/dL","50","250","4.38529",4.38529,"mmol/L",2.8,13.9,"NORMAL","",8,"WEEK 8","TREATMENT","2013-01-23T12:13",55],
["CDISCPILOT01","LB","CDISC001",166,"K","Potassium","CHEMISTRY","4.7","mEq/L","3.4","5.4","4.7",4.7,"mmol/L",3.4,5.4,"NORMAL","",8,"WEEK 8","TREATMENT","2013-01-23T12:13",55],
["CDISCPILOT01","LB","CDISC001",173,"SODIUM","Sodium","CHEMISTRY","141","mEq/L","135","145","141",141,"mmol/L",135,145,"NORMAL","",8,"WEEK 8","TREATMENT","2013-01-23T12:13",55],
["CDISCPILOT01","LB","CDISC001",175,"PHOS","Phosphate","CHEMISTRY","3.4","mg/dL","2.2","5.1","1.09786",1.09786,"mmol/L",0.71,1.65,"NORMAL","",8,"WEEK 8","TREATMENT","2013-01-23T12:13",55],
["CDISCPILOT01","LB","CDISC001",177,"PROT","Protein","CHEMISTRY","7.1","g/dL","6","8","71",71,"g/L",60,80,"NORMAL","",8,"WEEK 8","TREATMENT","2013-01-23T12:13",55],
["CDISCPILOT01","LB","CDISC001",180,"URATE","Urate","CHEMISTRY","4.5","mg/dL","2.5","7.5","267.66",267.66,"umol/L",149,446,"NORMAL","",8,"WEEK 8","TREATMENT","2013-01-23T12:13",55],
["CDISCPILOT01","LB","CDISC002",1,"ALB","Albumin","CHEMISTRY","4.2","g/dL","3.5","4.6","42",42,"g/L",35,46,"NORMAL","Y",1,"SCREENING 1","SCREENING","2012-10-30T14:26",-16],
["CDISCPILOT01","LB","CDISC002",2,"ALP","Alkaline Phosphatase","CHEMISTRY","106","U/L","35","115","106",106,"U/L",35,115,"NORMAL","Y",1,"SCREENING 1","SCREENING","2012-10-30T14:26",-16],
["CDISCPILOT01","LB","CDISC002",3,"ALT","Alanine Aminotransferase","CHEMISTRY","19","U/L","6","32","19",19,"U/L",6,32,"NORMAL","Y",1,"SCREENING 1","SCREENING","2012-10-30T14:26",-16],
["CDISCPILOT01","LB","CDISC002",4,"AST","Aspartate Aminotransferase","CHEMISTRY","20","U/L","9","34","20",20,"U/L",9,34,"NORMAL","Y",1,"SCREENING 1","SCREENING","2012-10-30T14:26",-16],
["CDISCPILOT01","LB","CDISC002",6,"BILI","Bilirubin","CHEMISTRY","1.1","mg/dL","0.2","1.2","18.81",18.81,"umol/L",3,21,"NORMAL","Y",1,"SCREENING 1","SCREENING","2012-10-30T14:26",-16],
["CDISCPILOT01","LB","CDISC002",7,"UREAN","Urea Nitrogen","CHEMISTRY","18","mg/dL","4","24","6.426",6.426,"mmol/L",1.4,8.6,"NORMAL","Y",1,"SCREENING 1","SCREENING","2012-10-30T14:26",-16],
["CDISCPILOT01","LB","CDISC002",8,"CA","Calcium","CHEMISTRY","9.3","mg/dL","8.4","10.3","2.32035",2.32035,"mmol/L",2.1,2.57,"NORMAL","Y",1,"SCREENING 1","SCREENING","2012-10-30T14:26",-16],
["CDISCPILOT01","LB","CDISC002",9,"CHOL","Cholesterol","CHEMISTRY","191","mg/dL","156","300","4.93926",4.93926,"mmol/L",4.03,7.76,"NORMAL","Y",1,"SCREENING 1","SCREENING","2012-10-30T14:26",-16],
["CDISCPILOT01","LB","CDISC002",10,"CK","Creatine Kinase","CHEMISTRY","91","U/L","21","169","91",91,"U/L",21,169,"NORMAL","Y",1,"SCREENING 1","SCREENING","2012-10-30T14:26",-16],
["CDISCPILOT01","LB","CDISC002",11,"CL","Chloride","CHEMISTRY","100","mEq/L","94","112","100",100,"mmol/L",94,112,"NORMAL","Y",1,"SCREENING 1","SCREENING","2012-10-30T14:26",-16],
["CDISCPILOT01","LB","CDISC002",13,"CREAT","Creatinine","CHEMISTRY","1.1","mg/dL","0.7","1.4","97.24",97.24,"umol/L",62,124,"NORMAL","Y",1,"SCREENING 1","SCREENING","2012-10-30T14:26",-16],
["CDISCPILOT01","LB","CDISC002",15,"GGT","Gamma Glutamyl Transferase","CHEMISTRY","22","U/L","5","50","22",22,"U/L",5,50,"NORMAL","Y",1,"SCREENING 1","SCREENING","2012-10-30T14:26",-16],
["CDISCPILOT01","LB","CDISC002",16,"GLUC","Glucose","CHEMISTRY","91","mg/dL","50","250","5.05141",5.05141,"mmol/L",2.8,13.9,"NORMAL","Y",1,"SCREENING 1","SCREENING","2012-10-30T14:26",-16],
["CDISCPILOT01","LB","CDISC002",19,"K","Potassium","CHEMISTRY","3.9","mEq/L","3.4","5.4","3.9",3.9,"mmol/L",3.4,5.4,"NORMAL","Y",1,"SCREENING 1","SCREENING","2012-10-30T14:26",-16],
["CDISCPILOT01","LB","CDISC002",26,"SODIUM","Sodium","CHEMISTRY","133","mEq/L","135","145","133",133,"mmol/L",135,145,"LOW","Y",1,"SCREENING 1","SCREENING","2012-10-30T14:26",-16],
["CDISCPILOT01","LB","CDISC002",28,"PHOS","Phosphate","CHEMISTRY","3.7","mg/dL","2.2","5.1","1.19473",1.19473,"mmol/L",0.71,1.65,"NORMAL","Y",1,"SCREENING 1","SCREENING","2012-10-30T14:26",-16],
["CDISCPILOT01","LB","CDISC002",30,"PROT","Protein","CHEMISTRY","7.6","g/dL","6","8","76",76,"g/L",60,80,"NORMAL","Y",1,"SCREENING 1","SCREENING","2012-10-30T14:26",-16],
["CDISCPILOT01","LB","CDISC002",34,"URATE","Urate","CHEMISTRY","4.6","mg/dL","2.5","7.5","273.608",273.608,"umol/L",149,446,"NORMAL","Y",1,"SCREENING 1","SCREENING","2012-10-30T14:26",-16],
["CDISCPILOT01","LB","CDISC002",38,"ALB","Albumin","CHEMISTRY","3.4","g/dL","3.5","4.6","34",34,"g/L",35,46,"LOW","",4,"WEEK 2","TREATMENT","2012-11-28T10:00",14],
["CDISCPILOT01","LB","CDISC002",39,"ALP","Alkaline Phosphatase","CHEMISTRY","103","U/L","35","115","103",103,"U/L",35,115,"NORMAL","",4,"WEEK 2","TREATMENT","2012-11-28T10:00",14],
["CDISCPILOT01","LB","CDISC002",40,"ALT","Alanine Aminotransferase","CHEMISTRY","19","U/L","6","32","19",19,"U/L",6,32,"NORMAL","",4,"WEEK 2","TREATMENT","2012-11-28T10:00",14],
["CDISCPILOT01","LB","CDISC002",41,"AST","Aspartate Aminotransferase","CHEMISTRY","10","U/L","9","34","10",10,"U/L",9,34,"NORMAL","",4,"WEEK 2","TREATMENT","2012-11-28T10:00",14],
["CDISCPILOT01","LB","CDISC002",43,"BILI","Bilirubin","CHEMISTRY","1.5","mg/dL","0.2","1.2","25.65",25.65,"umol/L",3,21,"HIGH","",4,"WEEK 2","TREATMENT","2012-11-28T10:00",14],
["CDISCPILOT01","LB","CDISC002",44,"UREAN","Urea Nitrogen","CHEMISTRY","27","mg/dL","4","24","9.639",9.639,"mmol/L",1.4,8.6,"HIGH","",4,"WEEK 2","TREATMENT","2012-11-28T10:00",14],
["CDISCPILOT01","LB","CDISC002",45,"CA","Calcium","CHEMISTRY","8.6","mg/dL","8.4","10.3","2.1457",2.1457,"mmol/L",2.1,2.57,"NORMAL","",4,"WEEK 2","TREATMENT","2012-11-28T10:00",14],
["CDISCPILOT01","LB","CDISC002",46,"CHOL","Cholesterol","CHEMISTRY","167","mg/dL","156","300","4.31862",4.31862,"mmol/L",4.03,7.76,"NORMAL","",4,"WEEK 2","TREATMENT","2012-11-28T10:00",14],
["CDISCPILOT01","LB","CDISC002",47,"CK","Creatine Kinase","CHEMISTRY","114","U/L","21","169","114",114,"U/L",21,169,"NORMAL","",4,"WEEK 2","TREATMENT","2012-11-28T10:00",14],
["CDISCPILOT01","LB","CDISC002",48,"CL","Chloride","CHEMISTRY","97","mEq/L","94","112","97",97,"mmol/L",94,112,"NORMAL","",4,"WEEK 2","TREATMENT","2012-11-28T10:00",14],
["CDISCPILOT01","LB","CDISC002",50,"CREAT","Creatinine","CHEMISTRY","1.2","mg/dL","0.7","1.4","106.08",106.08,"umol/L",62,124,"NORMAL","",4,"WEEK 2","TREATMENT","2012-11-28T10:00",14],
["CDISCPILOT01","LB","CDISC002",52,"GGT","Gamma Glutamyl Transferase","CHEMISTRY","25","U/L","5","50","25",25,"U/L",5,50,"NORMAL","",4,"WEEK 2","TREATMENT","2012-11-28T10:00",14],
["CDISCPILOT01","LB","CDISC002",53,"GLUC","Glucose","CHEMISTRY","72","mg/dL","50","250","3.99672",3.99672,"mmol/L",2.8,13.9,"NORMAL","",4,"WEEK 2","TREATMENT","2012-11-28T10:00",14],
["CDISCPILOT01","LB","CDISC002",56,"K","Potassium","CHEMISTRY","3.6","mEq/L","3.4","5.4","3.6",3.6,"mmol/L",3.4,5.4,"NORMAL","",4,"WEEK 2","TREATMENT","2012-11-28T10:00",14],
["CDISCPILOT01","LB","CDISC002",63,"SODIUM","Sodium","CHEMISTRY","137","mEq/L","135","145","137",137,"mmol/L",135,145,"NORMAL","",4,"WEEK 2","TREATMENT","2012-11-28T10:00",14],
["CDISCPILOT01","LB","CDISC002",65,"PHOS","Phosphate","CHEMISTRY","4.1","mg/dL","2.2","5.1","1.32389",1.32389,"mmol/L",0.71,1.65,"NORMAL","",4,"WEEK 2","TREATMENT","2012-11-28T10:00",14],
["CDISCPILOT01","LB","CDISC002",67,"PROT","Protein","CHEMISTRY","6.6","g/dL","6","8","66",66,"g/L",60,80,"NORMAL","",4,"WEEK 2","TREATMENT","2012-11-28T10:00",14],
["CDISCPILOT01","LB","CDISC002",70,"URATE","Urate","CHEMISTRY","5.0","mg/dL","2.5","7.5","297.4",297.4,"umol/L",149,446,"NORMAL","",4,"WEEK 2","TREATMENT","2012-11-28T10:00",14],
["CDISCPILOT01","LB","CDISC002",73,"ALB","Albumin","CHEMISTRY","3.6","g/dL","3.5","4.6","36",36,"g/L",35,46,"NORMAL","",5,"WEEK 4","TREATMENT","2012-12-11T12:16",27],
["CDISCPILOT01","LB","CDISC002",74,"ALP","Alkaline Phosphatase","CHEMISTRY","136","U/L","35","115","136",136,"U/L",35,115,"HIGH","",5,"WEEK 4","TREATMENT","2012-12-11T12:16",27],
["CDISCPILOT01","LB","CDISC002",75,"ALT","Alanine Aminotransferase","CHEMISTRY","14","U/L","6","32","14",14,"U/L",6,32,"NORMAL","",5,"WEEK 4","TREATMENT","2012-12-11T12:16",27],
["CDISCPILOT01","LB","CDISC002",76,"AST","Aspartate Aminotransferase","CHEMISTRY","15","U/L","9","34","15",15,"U/L",9,34,"NORMAL","",5,"WEEK 4","TREATMENT","2012-12-11T12:16",27],
["CDISCPILOT01","LB","CDISC002",78,"BILI","Bilirubin","CHEMISTRY","0.9","mg/dL","0.2","1.2","15.39",15.39,"umol/L",3,21,"NORMAL","",5,"WEEK 4","TREATMENT","2012-12-11T12:16",27],
["CDISCPILOT01","LB","CDISC002",79,"UREAN","Urea Nitrogen","CHEMISTRY","21","mg/dL","4","24","7.497",7.497,"mmol/L",1.4,8.6,"NORMAL","",5,"WEEK 4","TREATMENT","2012-12-11T12:16",27],
["CDISCPILOT01","LB","CDISC002",80,"CA","Calcium","CHEMISTRY","9.0","mg/dL","8.4","10.3","2.2455",2.2455,"mmol/L",2.1,2.57,"NORMAL","",5,"WEEK 4","TREATMENT","2012-12-11T12:16",27],
["CDISCPILOT01","LB","CDISC002",81,"CHOL","Cholesterol","CHEMISTRY","205","mg/dL","156","300","5.3013",5.3013,"mmol/L",4.03,7.76,"NORMAL","",5,"WEEK 4","TREATMENT","2012-12-11T12:16",27],
["CDISCPILOT01","LB","CDISC002",82,"CK","Creatine Kinase","CHEMISTRY","61","U/L","21","169","61",61,"U/L",21,169,"NORMAL","",5,"WEEK 4","TREATMENT","2012-12-11T12:16",27],
["CDISCPILOT01","LB","CDISC002",83,"CL","Chloride","CHEMISTRY","101","mEq/L","94","112","101",101,"mmol/L",94,112,"NORMAL","",5,"WEEK 4","TREATMENT","2012-12-11T12:16",27],
["CDISCPILOT01","LB","CDISC002",84,"CREAT","Creatinine","CHEMISTRY","1.1","mg/dL","0.7","1.4","97.24",97.24,"umol/L",62,124,"NORMAL","",5,"WEEK 4","TREATMENT","2012-12-11T12:16",27],
["CDISCPILOT01","LB","CDISC002",86,"GGT","Gamma Glutamyl Transferase","CHEMISTRY","20","U/L","5","50","20",20,"U/L",5,50,"NORMAL","",5,"WEEK 4","TREATMENT","2012-12-11T12:16",27],
["CDISCPILOT01","LB","CDISC002",87,"GLUC","Glucose","CHEMISTRY","73","mg/dL","50","250","4.05223",4.05223,"mmol/L",2.8,13.9,"NORMAL","",5,"WEEK 4","TREATMENT","2012-12-11T12:16",27],
["CDISCPILOT01","LB","CDISC002",90,"K","Potassium","CHEMISTRY","4.2","mEq/L","3.4","5.4","4.2",4.2,"mmol/L",3.4,5.4,"NORMAL","",5,"WEEK 4","TREATMENT","2012-12-11T12:16",27],
["CDISCPILOT01","LB","CDISC002",96,"SODIUM","Sodium","CHEMISTRY","133","mEq/L","135","145","133",133,"mmol/L",135,145,"LOW","",5,"WEEK 4","TREATMENT","2012-12-11T12:16",27],
["CDISCPILOT01","LB","CDISC002",97,"PHOS","Phosphate","CHEMISTRY","3.4","mg/dL","2.2","5.1","1.09786",1.09786,"mmol/L",0.71,1.65,"NORMAL","",5,"WEEK 4","TREATMENT","2012-12-11T12:16",27],
["CDISCPILOT01","LB","CDISC002",99,"PROT","Protein","CHEMISTRY","6.7","g/dL","6","8","67",67,"g/L",60,80,"NORMAL","",5,"WEEK 4","TREATMENT","2012-12-11T12:16",27],
["CDISCPILOT01","LB","CDISC002",101,"URATE","Urate","CHEMISTRY","3.9","mg/dL","2.5","7.5","231.972",231.972,"umol/L",149,446,"NORMAL","",5,"WEEK 4","TREATMENT","2012-12-11T12:16",27],
["CDISCPILOT01","LB","CDISC002",103,"ALB","Albumin","CHEMISTRY","3.3","g/dL","3.5","4.6","33",33,"g/L",35,46,"LOW","",7,"WEEK 6","TREATMENT","2012-12-25T14:00",41],
["CDISCPILOT01","LB","CDISC002",104,"ALP","Alkaline Phosphatase","CHEMISTRY","132","U/L","35","115","132",132,"U/L",35,115,"HIGH","",7,"WEEK 6","TREATMENT","2012-12-25T14:00",41],
["CDISCPILOT01","LB","CDISC002",105,"ALT","Alanine Aminotransferase","CHEMISTRY","15","U/L","6","32","15",15,"U/L",6,32,"NORMAL","",7,"WEEK 6","TREATMENT","2012-12-25T14:00",41],
["CDISCPILOT01","LB","CDISC002",106,"AST","Aspartate Aminotransferase","CHEMISTRY","15","U/L","9","34","15",15,"U/L",9,34,"NORMAL","",7,"WEEK 6","TREATMENT","2012-12-25T14:00",41],
["CDISCPILOT01","LB","CDISC002",108,"BILI","Bilirubin","CHEMISTRY","0.9","mg/dL","0.2","1.2","15.39",15.39,"umol/L",3,21,"NORMAL","",7,"WEEK 6","TREATMENT","2012-12-25T14:00",41],
["CDISCPILOT01","LB","CDISC002",109,"UREAN","Urea Nitrogen","CHEMISTRY","24","mg/dL","4","24","8.568",8.568,"mmol/L",1.4,8.6,"NORMAL","",7,"WEEK 6","TREATMENT","2012-12-25T14:00",41],
["CDISCPILOT01","LB","CDISC002",110,"CA","Calcium","CHEMISTRY","8.6","mg/dL","8.4","10.3","2.1457",2.1457,"mmol/L",2.1,2.57,"NORMAL","",7,"WEEK 6","TREATMENT","2012-12-25T14:00",41],
["CDISCPILOT01","LB","CDISC002",111,"CHOL","Cholesterol","CHEMISTRY","170","mg/dL","156","300","4.3962",4.3962,"mmol/L",4.03,7.76,"NORMAL","",7,"WEEK 6","TREATMENT","2012-12-25T14:00",41],
["CDISCPILOT01","LB","CDISC002",112,"CK","Creatine Kinase","CHEMISTRY","39","U/L","21","169","39",39,"U/L",21,169,"NORMAL","",7,"WEEK 6","TREATMENT","2012-12-25T14:00",41],
["CDISCPILOT01","LB","CDISC002",113,"CL","Chloride","CHEMISTRY","103","mEq/L","94","112","103",103,"mmol/L",94,112,"NORMAL","",7,"WEEK 6","TREATMENT","2012-12-25T14:00",41],
["CDISCPILOT01","LB","CDISC002",114,"CREAT","Creatinine","CHEMISTRY","1.1","mg/dL","0.7","1.4","97.24",97.24,"umol/L",62,124,"NORMAL","",7,"WEEK 6","TREATMENT","2012-12-25T14:00",41],
["CDISCPILOT01","LB","CDISC002",116,"GGT","Gamma Glutamyl Transferase","CHEMISTRY","25","U/L","5","50","25",25,"U/L",5,50,"NORMAL","",7,"WEEK 6","TREATMENT","2012-12-25T14:00",41],
["CDISCPILOT01","LB","CDISC002",117,"GLUC","Glucose","CHEMISTRY","80","mg/dL","50","250","4.4408",4.4408,"mmol/L",2.8,13.9,"NORMAL","",7,"WEEK 6","TREATMENT","2012-12-25T14:00",41],
["CDISCPILOT01","LB","CDISC002",120,"K","Potassium","CHEMISTRY","4.3","mEq/L","3.4","5.4","4.3",4.3,"mmol/L",3.4,5.4,"NORMAL","",7,"WEEK 6","TREATMENT","2012-12-25T14:00",41],
["CDISCPILOT01","LB","CDISC002",126,"SODIUM","Sodium","CHEMISTRY","135","mEq/L","135","145","135",135,"mmol/L",135,145,"NORMAL","",7,"WEEK 6","TREATMENT","2012-12-25T14:00",41],
["CDISCPILOT01","LB","CDISC002",127,"PHOS","Phosphate","CHEMISTRY","4.0","mg/dL","2.2","5.1","1.2916",1.2916,"mmol/L",0.71,1.65,"NORMAL","",7,"WEEK 6","TREATMENT","2012-12-25T14:00",41],
["CDISCPILOT01","LB","CDISC002",129,"PROT","Protein","CHEMISTRY","6.2","g/dL","6","8","62",62,"g/L",60,80,"NORMAL","",7,"WEEK 6","TREATMENT","2012-12-25T14:00",41],
["CDISCPILOT01","LB","CDISC002",131,"URATE","Urate","CHEMISTRY","4.7","mg/dL","2.5","7.5","279.556",279.556,"umol/L",149,446,"NORMAL","",7,"WEEK 6","TREATMENT","2012-12-25T14:00",41],
["CDISCPILOT01","LB","CDISC002",133,"ALB","Albumin","CHEMISTRY","3.3","g/dL","3.5","4.6","33",33,"g/L",35,46,"LOW","",8,"WEEK 8","TREATMENT","2013-01-08T12:13",55],
["CDISCPILOT01","LB","CDISC002",134,"ALP","Alkaline Phosphatase","CHEMISTRY","183","U/L","35","115","183",183,"U/L",35,115,"HIGH","",8,"WEEK 8","TREATMENT","2013-01-08T12:13",55],
["CDISCPILOT01","LB","CDISC002",135,"ALT","Alanine Aminotransferase","CHEMISTRY","21","U/L","6","32","21",21,"U/L",6,32,"NORMAL","",8,"WEEK 8","TREATMENT","2013-01-08T12:13",55],
["CDISCPILOT01","LB","CDISC002",136,"AST","Aspartate Aminotransferase","CHEMISTRY","17","U/L","9","34","17",17,"U/L",9,34,"NORMAL","",8,"WEEK 8","TREATMENT","2013-01-08T12:13",55],
["CDISCPILOT01","LB","CDISC002",138,"BILI","Bilirubin","CHEMISTRY","1.4","mg/dL","0.2","1.2","23.94",23.94,"umol/L",3,21,"HIGH","",8,"WEEK 8","TREATMENT","2013-01-08T12:13",55],
["CDISCPILOT01","LB","CDISC002",139,"UREAN","Urea Nitrogen","CHEMISTRY","24","mg/dL","4","24","8.568",8.568,"mmol/L",1.4,8.6,"NORMAL","",8,"WEEK 8","TREATMENT","2013-01-08T12:13",55],
["CDISCPILOT01","LB","CDISC002",140,"CA","Calcium","CHEMISTRY","9.0","mg/dL","8.4","10.3","2.2455",2.2455,"mmol/L",2.1,2.57,"NORMAL","",8,"WEEK 8","TREATMENT","2013-01-08T12:13",55],
["CDISCPILOT01","LB","CDISC002",141,"CHOL","Cholesterol","CHEMISTRY","162","mg/dL","156","300","4.18932",4.18932,"mmol/L",4.03,7.76,"NORMAL","",8,"WEEK 8","TREATMENT","2013-01-08T12:13",55],
["CDISCPILOT01","LB","CDISC002",142,"CK","Creatine Kinase","CHEMISTRY","27","U/L","21","169","27",27,"U/L",21,169,"NORMAL","",8,"WEEK 8","TREATMENT","2013-01-08T12:13",55],
["CDISCPILOT01","LB","CDISC002",143,"CL","Chloride","CHEMISTRY","101","mEq/L","94","112","101",101,"mmol/L",94,112,"NORMAL","",8,"WEEK 8","TREATMENT","2013-01-08T12:13",55],
["CDISCPILOT01","LB","CDISC002",144,"CREAT","Creatinine","CHEMISTRY","1.3","mg/dL","0.7","1.4","114.92",114.92,"umol/L",62,124,"NORMAL","",8,"WEEK 8","TREATMENT","2013-01-08T12:13",55],
["CDISCPILOT01","LB","CDISC002",146,"GGT","Gamma Glutamyl Transferase","CHEMISTRY","65","U/L","5","50","65",65,"U/L",5,50,"HIGH","",8,"WEEK 8","TREATMENT","2013-01-08T12:13",55],
["CDISCPILOT01","LB","CDISC002",147,"GLUC","Glucose","CHEMISTRY","100","mg/dL","50","250","5.551",5.551,"mmol/L",2.8,13.9,"NORMAL","",8,"WEEK 8","TREATMENT","2013-01-08T12:13",55],
["CDISCPILOT01","LB","CDISC002",150,"K","Potassium","CHEMISTRY","3.6","mEq/L","3.4","5.4","3.6",3.6,"mmol/L",3.4,5.4,"NORMAL","",8,"WEEK 8","TREATMENT","2013-01-08T12:13",55],
["CDISCPILOT01","LB","CDISC002",156,"SODIUM","Sodium","CHEMISTRY","142","mEq/L","135","145","142",142,"mmol/L",135,145,"NORMAL","",8,"WEEK 8","TREATMENT","2013-01-08T12:13",55],
["CDISCPILOT01","LB","CDISC002",157,"PHOS","Phosphate","CHEMISTRY","3.3","mg/dL","2.2","5.1","1.06557",1.06557,"mmol/L",0.71,1.65,"NORMAL","",8,"WEEK 8","TREATMENT","2013-01-08T12:13",55],
["CDISCPILOT01","LB","CDISC002",159,"PROT","Protein","CHEMISTRY","7.1","g/dL","6","8","71",71,"g/L",60,80,"NORMAL","",8,"WEEK 8","TREATMENT","2013-01-08T12:13",55],
["CDISCPILOT01","LB","CDISC002",161,"URATE","Urate","CHEMISTRY","4.0","mg/dL","2.5","7.5","237.92",237.92,"umol/L",149,446,"NORMAL","",8,"WEEK 8","TREATMENT","2013-01-08T12:13",55],
["CDISCPILOT01","LB","CDISC003",1,"ALB","Albumin","CHEMISTRY","4.3","g/dL","3.3","4.9","43",43,"g/L",33,49,"NORMAL","Y",1,"SCREENING 1","SCREENING","2013-08-20T12:27",-9],
["CDISCPILOT01","LB","CDISC003",2,"ALP","Alkaline Phosphatase","CHEMISTRY","67","U/L","35","115","67",67,"U/L",35,115,"NORMAL","Y",1,"SCREENING 1","SCREENING","2013-08-20T12:27",-9],
["CDISCPILOT01","LB","CDISC003",3,"ALT","Alanine Aminotransferase","CHEMISTRY","62","U/L","6","43","62",62,"U/L",6,43,"HIGH","Y",1,"SCREENING 1","SCREENING","2013-08-20T12:27",-9],
["CDISCPILOT01","LB","CDISC003",4,"AST","Aspartate Aminotransferase","CHEMISTRY","52","U/L","11","36","52",52,"U/L",11,36,"HIGH","Y",1,"SCREENING 1","SCREENING","2013-08-20T12:27",-9],
["CDISCPILOT01","LB","CDISC003",6,"BILI","Bilirubin","CHEMISTRY","0.6","mg/dL","0.2","1.2","10.26",10.26,"umol/L",3,21,"NORMAL","Y",1,"SCREENING 1","SCREENING","2013-08-20T12:27",-9],
["CDISCPILOT01","LB","CDISC003",7,"UREAN","Urea Nitrogen","CHEMISTRY","13","mg/dL","4","24","4.641",4.641,"mmol/L",1.4,8.6,"NORMAL","Y",1,"SCREENING 1","SCREENING","2013-08-20T12:27",-9],
["CDISCPILOT01","LB","CDISC003",8,"CA","Calcium","CHEMISTRY","9.6","mg/dL","8.4","10.3","2.3952",2.3952,"mmol/L",2.1,2.57,"NORMAL","Y",1,"SCREENING 1","SCREENING","2013-08-20T12:27",-9],
["CDISCPILOT01","LB","CDISC003",9,"CHOL","Cholesterol","CHEMISTRY","255","mg/dL","149","286","6.5943",6.5943,"mmol/L",3.85,7.4,"NORMAL","Y",1,"SCREENING 1","SCREENING","2013-08-20T12:27",-9],
["CDISCPILOT01","LB","CDISC003",10,"CK","Creatine Kinase","CHEMISTRY","444","U/L","22","198","444",444,"U/L",22,198,"HIGH","Y",1,"SCREENING 1","SCREENING","2013-08-20T12:27",-9],
["CDISCPILOT01","LB","CDISC003",11,"CL","Chloride","CHEMISTRY","111","mEq/L","94","112","111",111,"mmol/L",94,112,"NORMAL","Y",1,"SCREENING 1","SCREENING","2013-08-20T12:27",-9],
["CDISCPILOT01","LB","CDISC003",13,"CREAT","Creatinine","CHEMISTRY","1.3","mg/dL","0.8","1.6","114.92",114.92,"umol/L",71,141,"NORMAL","Y",1,"SCREENING 1","SCREENING","2013-08-20T12:27",-9],
["CDISCPILOT01","LB","CDISC003",15,"GGT","Gamma Glutamyl Transferase","CHEMISTRY","17","U/L","10","50","17",17,"U/L",10,50,"NORMAL","Y",1,"SCREENING 1","SCREENING","2013-08-20T12:27",-9],
["CDISCPILOT01","LB","CDISC003",16,"GLUC","Glucose","CHEMISTRY","85","mg/dL","50","250","4.71835",4.71835,"mmol/L",2.8,13.9,"NORMAL","Y",1,"SCREENING 1","SCREENING","2013-08-20T12:27",-9],
["CDISCPILOT01","LB","CDISC003",19,"K","Potassium","CHEMISTRY","4.3","mEq/L","3.4","5.4","4.3",4.3,"mmol/L",3.4,5.4,"NORMAL","Y",1,"SCREENING 1","SCREENING","2013-08-20T12:27",-9],
["CDISCPILOT01","LB","CDISC003",26,"SODIUM","Sodium","CHEMISTRY","140","mEq/L","135","145","140",140,"mmol/L",135,145,"NORMAL","Y",1,"SCREENING 1","SCREENING","2013-08-20T12:27",-9],
["CDISCPILOT01","LB","CDISC003",28,"PHOS","Phosphate","CHEMISTRY","3.6","mg/dL","2.2","5.1","1.16244",1.16244,"mmol/L",0.71,1.65,"NORMAL","Y",1,"SCREENING 1","SCREENING","2013-08-20T12:27",-9],
["CDISCPILOT01","LB","CDISC003",30,"PROT","Protein","CHEMISTRY","7.9","g/dL","6","8","79",79,"g/L",60,80,"NORMAL","Y",1,"SCREENING 1","SCREENING","2013-08-20T12:27",-9],
["CDISCPILOT01","LB","CDISC003",34,"URATE","Urate","CHEMISTRY","3.6","mg/dL","2.5","7.5","214.128",214.128,"umol/L",149,446,"NORMAL","Y",1,"SCREENING 1","SCREENING","2013-08-20T12:27",-9],
["CDISCPILOT01","LB","CDISC003",38,"ALB","Albumin","CHEMISTRY","3.6","g/dL","3.3","4.9","36",36,"g/L",33,49,"NORMAL","",4,"WEEK 2","TREATMENT","2013-09-15T12:44",18],
["CDISCPILOT01","LB","CDISC003",39,"ALP","Alkaline Phosphatase","CHEMISTRY","61","U/L","35","115","61",61,"U/L",35,115,"NORMAL","",4,"WEEK 2","TREATMENT","2013-09-15T12:44",18],
["CDISCPILOT01","LB","CDISC003",40,"ALT","Alanine Aminotransferase","CHEMISTRY","31","U/L","6","43","31",31,"U/L",6,43,"NORMAL","",4,"WEEK 2","TREATMENT","2013-09-15T12:44",18],
["CDISCPILOT01","LB","CDISC003",41,"AST","Aspartate Aminotransferase","CHEMISTRY","30","U/L","11","36","30",30,"U/L",11,36,"NORMAL","",4,"WEEK 2","TREATMENT","2013-09-15T12:44",18],
["CDISCPILOT01","LB","CDISC003",43,"BILI","Bilirubin","CHEMISTRY","0.4","mg/dL","0.2","1.2","6.84",6.84,"umol/L",3,21,"NORMAL","",4,"WEEK 2","TREATMENT","2013-09-15T12:44",18],
["CDISCPILOT01","LB","CDISC003",44,"UREAN","Urea Nitrogen","CHEMISTRY","11","mg/dL","4","24","3.927",3.927,"mmol/L",1.4,8.6,"NORMAL","",4,"WEEK 2","TREATMENT","2013-09-15T12:44",18],
["CDISCPILOT01","LB","CDISC003",45,"CA","Calcium","CHEMISTRY","8.7","mg/dL","8.4","10.3","2.17065",2.17065,"mmol/L",2.1,2.57,"NORMAL","",4,"WEEK 2","TREATMENT","2013-09-15T12:44",18],
["CDISCPILOT01","LB","CDISC003",46,"CHOL","Cholesterol","CHEMISTRY","225","mg/dL","149","286","5.8185",5.8185,"mmol/L",3.85,7.4,"NORMAL","",4,"WEEK 2","TREATMENT","2013-09-15T12:44",18],
["CDISCPILOT01","LB","CDISC003",47,"CK","Creatine Kinase","CHEMISTRY","100","U/L","22","198","100",100,"U/L",22,198,"NORMAL","",4,"WEEK 2","TREATMENT","2013-09-15T12:44",18],
["CDISCPILOT01","LB","CDISC003",48,"CL","Chloride","CHEMISTRY","108","mEq/L","94","112","108",108,"mmol/L",94,112,"NORMAL","",4,"WEEK 2","TREATMENT","2013-09-15T12:44",18],
["CDISCPILOT01","LB","CDISC003",50,"CREAT","Creatinine","CHEMISTRY","1.1","mg/dL","0.8","1.6","97.24",97.24,"umol/L",71,141,"NORMAL","",4,"WEEK 2","TREATMENT","2013-09-15T12:44",18],
["CDISCPILOT01","LB","CDISC003",52,"GGT","Gamma Glutamyl Transferase","CHEMISTRY","12","U/L","10","50","12",12,"U/L",10,50,"NORMAL","",4,"WEEK 2","TREATMENT","2013-09-15T12:44",18],
["CDISCPILOT01","LB","CDISC003",53,"GLUC","Glucose","CHEMISTRY","88","mg/dL","50","250","4.88488",4.88488,"mmol/L",2.8,13.9,"NORMAL","",4,"WEEK 2","TREATMENT","2013-09-15T12:44",18],
["CDISCPILOT01","LB","CDISC003",56,"K","Potassium","CHEMISTRY","3.8","mEq/L","3.4","5.4","3.8",3.8,"mmol/L",3.4,5.4,"NORMAL","",4,"WEEK 2","TREATMENT","2013-09-15T12:44",18],
["CDISCPILOT01","LB","CDISC003",63,"SODIUM","Sodium","CHEMISTRY","140","mEq/L","135","145","140",140,"mmol/L",135,145,"NORMAL","",4,"WEEK 2","TREATMENT","2013-09-15T12:44",18],
["CDISCPILOT01","LB","CDISC003",65,"PHOS","Phosphate","CHEMISTRY","2.8","mg/dL","2.2","5.1","0.90412",0.90412,"mmol/L",0.71,1.65,"NORMAL","",4,"WEEK 2","TREATMENT","2013-09-15T12:44",18],
["CDISCPILOT01","LB","CDISC003",67,"PROT","Protein","CHEMISTRY","6.8","g/dL","6","8","68",68,"g/L",60,80,"NORMAL","",4,"WEEK 2","TREATMENT","2013-09-15T12:44",18],
["CDISCPILOT01","LB","CDISC003",70,"URATE","Urate","CHEMISTRY","3.6","mg/dL","2.5","7.5","214.128",214.128,"umol/L",149,446,"NORMAL","",4,"WEEK 2","TREATMENT","2013-09-15T12:44",18],
["CDISCPILOT01","LB","CDISC003",73,"ALB","Albumin","CHEMISTRY","4.0","g/dL","3.3","4.9","40",40,"g/L",33,49,"NORMAL","",5,"WEEK 4","TREATMENT","2013-09-24T08:16",27],
["CDISCPILOT01","LB","CDISC003",74,"ALP","Alkaline Phosphatase","CHEMISTRY","75","U/L","35","115","75",75,"U/L",35,115,"NORMAL","",5,"WEEK 4","TREATMENT","2013-09-24T08:16",27],
["CDISCPILOT01","LB","CDISC003",75,"ALT","Alanine Aminotransferase","CHEMISTRY","34","U/L","6","43","34",34,"U/L",6,43,"NORMAL","",5,"WEEK 4","TREATMENT","2013-09-24T08:16",27],
["CDISCPILOT01","LB","CDISC003",76,"AST","Aspartate Aminotransferase","CHEMISTRY","30","U/L","11","36","30",30,"U/L",11,36,"NORMAL","",5,"WEEK 4","TREATMENT","2013-09-24T08:16",27],
["CDISCPILOT01","LB","CDISC003",78,"BILI","Bilirubin","CHEMISTRY","0.5","mg/dL","0.2","1.2","8.55",8.55,"umol/L",3,21,"NORMAL","",5,"WEEK 4","TREATMENT","2013-09-24T08:16",27],
["CDISCPILOT01","LB","CDISC003",79,"UREAN","Urea Nitrogen","CHEMISTRY","12","mg/dL","4","24","4.284",4.284,"mmol/L",1.4,8.6,"NORMAL","",5,"WEEK 4","TREATMENT","2013-09-24T08:16",27],
["CDISCPILOT01","LB","CDISC003",80,"CA","Calcium","CHEMISTRY","8.7","mg/dL","8.4","10.3","2.17065",2.17065,"mmol/L",2.1,2.57,"NORMAL","",5,"WEEK 4","TREATMENT","2013-09-24T08:16",27],
["CDISCPILOT01","LB","CDISC003",81,"CHOL","Cholesterol","CHEMISTRY","239","mg/dL","149","286","6.18054",6.18054,"mmol/L",3.85,7.4,"NORMAL","",5,"WEEK 4","TREATMENT","2013-09-24T08:16",27],
["CDISCPILOT01","LB","CDISC003",82,"CK","Creatine Kinase","CHEMISTRY","123","U/L","22","198","123",123,"U/L",22,198,"NORMAL","",5,"WEEK 4","TREATMENT","2013-09-24T08:16",27],
["CDISCPILOT01","LB","CDISC003",83,"CL","Chloride","CHEMISTRY","109","mEq/L","94","112","109",109,"mmol/L",94,112,"NORMAL","",5,"WEEK 4","TREATMENT","2013-09-24T08:16",27],
["CDISCPILOT01","LB","CDISC003",84,"CREAT","Creatinine","CHEMISTRY","1.2","mg/dL","0.8","1.6","106.08",106.08,"umol/L",71,141,"NORMAL","",5,"WEEK 4","TREATMENT","2013-09-24T08:16",27],
["CDISCPILOT01","LB","CDISC003",86,"GGT","Gamma Glutamyl Transferase","CHEMISTRY","17","U/L","10","50","17",17,"U/L",10,50,"NORMAL","",5,"WEEK 4","TREATMENT","2013-09-24T08:16",27],
["CDISCPILOT01","LB","CDISC003",87,"GLUC","Glucose","CHEMISTRY","102","mg/dL","50","250","5.66202",5.66202,"mmol/L",2.8,13.9,"NORMAL","",5,"WEEK 4","TREATMENT","2013-09-24T08:16",27],
["CDISCPILOT01","LB","CDISC003",90,"K","Potassium","CHEMISTRY","4.1","mEq/L","3.4","5.4","4.1",4.1,"mmol/L",3.4,5.4,"NORMAL","",5,"WEEK 4","TREATMENT","2013-09-24T08:16",27],
["CDISCPILOT01","LB","CDISC003",96,"SODIUM","Sodium","CHEMISTRY","136","mEq/L","135","145","136",136,"mmol/L",135,145,"NORMAL","",5,"WEEK 4","TREATMENT","2013-09-24T08:16",27],
["CDISCPILOT01","LB","CDISC003",97,"PHOS","Phosphate","CHEMISTRY","2.9","mg/dL","2.2","5.1","0.93641",0.93641,"mmol/L",0.71,1.65,"NORMAL","",5,"WEEK 4","TREATMENT","2013-09-24T08:16",27],
["CDISCPILOT01","LB","CDISC003",99,"PROT","Protein","CHEMISTRY","7.4","g/dL","6","8","74",74,"g/L",60,80,"NORMAL","",5,"WEEK 4","TREATMENT","2013-09-24T08:16",27],
["CDISCPILOT01","LB","CDISC003",101,"URATE","Urate","CHEMISTRY","4.5","mg/dL","2.5","7.5","267.66",267.66,"umol/L",149,446,"NORMAL","",5,"WEEK 4","TREATMENT","2013-09-24T08:16",27],
["CDISCPILOT01","LB","CDISC003",103,"ALB","Albumin","CHEMISTRY","4.1","g/dL","3.3","4.9","41",41,"g/L",33,49,"NORMAL","",7,"WEEK 6","TREATMENT","2013-10-08T15:30",41],
["CDISCPILOT01","LB","CDISC003",104,"ALP","Alkaline Phosphatase","CHEMISTRY","77","U/L","35","115","77",77,"U/L",35,115,"NORMAL","",7,"WEEK 6","TREATMENT","2013-10-08T15:30",41],
["CDISCPILOT01","LB","CDISC003",105,"ALT","Alanine Aminotransferase","CHEMISTRY","52","U/L","6","43","52",52,"U/L",6,43,"HIGH","",7,"WEEK 6","TREATMENT","2013-10-08T15:30",41],
["CDISCPILOT01","LB","CDISC003",106,"AST","Aspartate Aminotransferase","CHEMISTRY","73","U/L","11","36","73",73,"U/L",11,36,"HIGH","",7,"WEEK 6","TREATMENT","2013-10-08T15:30",41],
["CDISCPILOT01","LB","CDISC003",108,"BILI","Bilirubin","CHEMISTRY","0.6","mg/dL","0.2","1.2","10.26",10.26,"umol/L",3,21,"NORMAL","",7,"WEEK 6","TREATMENT","2013-10-08T15:30",41],
["CDISCPILOT01","LB","CDISC003",109,"UREAN","Urea Nitrogen","CHEMISTRY","16","mg/dL","4","24","5.712",5.712,"mmol/L",1.4,8.6,"NORMAL","",7,"WEEK 6","TREATMENT","2013-10-08T15:30",41],
["CDISCPILOT01","LB","CDISC003",110,"CA","Calcium","CHEMISTRY","9.2","mg/dL","8.4","10.3","2.2954",2.2954,"mmol/L",2.1,2.57,"NORMAL","",7,"WEEK 6","TREATMENT","2013-10-08T15:30",41],
["CDISCPILOT01","LB","CDISC003",111,"CHOL","Cholesterol","CHEMISTRY","232","mg/dL","149","286","5.99952",5.99952,"mmol/L",3.85,7.4,"NORMAL","",7,"WEEK 6","TREATMENT","2013-10-08T15:30",41],
["CDISCPILOT01","LB","CDISC003",112,"CK","Creatine Kinase","CHEMISTRY","1860","U/L","22","198","1860",1860,"U/L",22,198,"HIGH","",7,"WEEK 6","TREATMENT","2013-10-08T15:30",41],
["CDISCPILOT01","LB","CDISC003",113,"CL","Chloride","CHEMISTRY","109","mEq/L","94","112","109",109,"mmol/L",94,112,"NORMAL","",7,"WEEK 6","TREATMENT","2013-10-08T15:30",41],
["CDISCPILOT01","LB","CDISC003",114,"CREAT","Creatinine","CHEMISTRY","1.3","mg/dL","0.8","1.6","114.92",114.92,"umol/L",71,141,"NORMAL","",7,"WEEK 6","TREATMENT","2013-10-08T15:30",41],
["CDISCPILOT01","LB","CDISC003",116,"GGT","Gamma Glutamyl Transferase","CHEMISTRY","13","U/L","10","50","13",13,"U/L",10,50,"NORMAL","",7,"WEEK 6","TREATMENT","2013-10-08T15:30",41],
["CDISCPILOT01","LB","CDISC003",117,"GLUC","Glucose","CHEMISTRY","86","mg/dL","50","250","4.77386",4.77386,"mmol/L",2.8,13.9,"NORMAL","",7,"WEEK 6","TREATMENT","2013-10-08T15:30",41],
["CDISCPILOT01","LB","CDISC003",120,"K","Potassium","CHEMISTRY","3.9","mEq/L","3.4","5.4","3.9",3.9,"mmol/L",3.4,5.4,"NORMAL","",7,"WEEK 6","TREATMENT","2013-10-08T15:30",41],
["CDISCPILOT01","LB","CDISC003",126,"SODIUM","Sodium","CHEMISTRY","137","mEq/L","135","145","137",137,"mmol/L",135,145,"NORMAL","",7,"WEEK 6","TREATMENT","2013-10-08T15:30",41],
["CDISCPILOT01","LB","CDISC003",127,"PHOS","Phosphate","CHEMISTRY","3.1","mg/dL","2.2","5.1","1.00099",1.00099,"mmol/L",0.71,1.65,"NORMAL","",7,"WEEK 6","TREATMENT","2013-10-08T15:30",41],
["CDISCPILOT01","LB","CDISC003",129,"PROT","Protein","CHEMISTRY","7.2","g/dL","6","8","72",72,"g/L",60,80,"NORMAL","",7,"WEEK 6","TREATMENT","2013-10-08T15:30",41],
["CDISCPILOT01","LB","CDISC003",131,"URATE","Urate","CHEMISTRY","4.2","mg/dL","2.5","7.5","249.816",249.816,"umol/L",149,446,"NORMAL","",7,"WEEK 6","TREATMENT","2013-10-08T15:30",41],
["CDISCPILOT01","LB","CDISC003",133,"ALB","Albumin","CHEMISTRY","4.1","g/dL","3.3","4.9","41",41,"g/L",33,49,"NORMAL","",8,"WEEK 8","TREATMENT","2013-10-22T11:54",55],
["CDISCPILOT01","LB","CDISC003",134,"ALP","Alkaline Phosphatase","CHEMISTRY","62","U/L","35","115","62",62,"U/L",35,115,"NORMAL","",8,"WEEK 8","TREATMENT","2013-10-22T11:54",55],
["CDISCPILOT01","LB","CDISC003",135,"ALT","Alanine Aminotransferase","CHEMISTRY","33","U/L","6","43","33",33,"U/L",6,43,"NORMAL","",8,"WEEK 8","TREATMENT","2013-10-22T11:54",55],
["CDISCPILOT01","LB","CDISC003",136,"AST","Aspartate Aminotransferase","CHEMISTRY","30","U/L","11","36","30",30,"U/L",11,36,"NORMAL","",8,"WEEK 8","TREATMENT","2013-10-22T11:54",55],
["CDISCPILOT01","LB","CDISC003",138,"BILI","Bilirubin","CHEMISTRY","0.5","mg/dL","0.2","1.2","8.55",8.55,"umol/L",3,21,"NORMAL","",8,"WEEK 8","TREATMENT","2013-10-22T11:54",55],
["CDISCPILOT01","LB","CDISC003",139,"UREAN","Urea Nitrogen","CHEMISTRY","14","mg/dL","4","24","4.998",4.998,"mmol/L",1.4,8.6,"NORMAL","",8,"WEEK 8","TREATMENT","2013-10-22T11:54",55],
["CDISCPILOT01","LB","CDISC003",140,"CA","Calcium","CHEMISTRY","9.5","mg/dL","8.4","10.3","2.37025",2.37025,"mmol/L",2.1,2.57,"NORMAL","",8,"WEEK 8","TREATMENT","2013-10-22T11:54",55],
["CDISCPILOT01","LB","CDISC003",141,"CHOL","Cholesterol","CHEMISTRY","241","mg/dL","149","286","6.23226",6.23226,"mmol/L",3.85,7.4,"NORMAL","",8,"WEEK 8","TREATMENT","2013-10-22T11:54",55],
["CDISCPILOT01","LB","CDISC003",142,"CK","Creatine Kinase","CHEMISTRY","145","U/L","22","198","145",145,"U/L",22,198,"NORMAL","",8,"WEEK 8","TREATMENT","2013-10-22T11:54",55],
["CDISCPILOT01","LB","CDISC003",143,"CL","Chloride","CHEMISTRY","105","mEq/L","94","112","105",105,"mmol/L",94,112,"NORMAL","",8,"WEEK 8","TREATMENT","2013-10-22T11:54",55],
["CDISCPILOT01","LB","CDISC003",144,"CREAT","Creatinine","CHEMISTRY","1.3","mg/dL","0.8","1.6","114.92",114.92,"umol/L",71,141,"NORMAL","",8,"WEEK 8","TREATMENT","2013-10-22T11:54",55],
["CDISCPILOT01","LB","CDISC003",146,"GGT","Gamma Glutamyl Transferase","CHEMISTRY","14","U/L","10","50","14",14,"U/L",10,50,"NORMAL","",8,"WEEK 8","TREATMENT","2013-10-22T11:54",55],
["CDISCPILOT01","LB","CDISC003",147,"GLUC","Glucose","CHEMISTRY","92","mg/dL","50","250","5.10692",5.10692,"mmol/L",2.8,13.9,"NORMAL","",8,"WEEK 8","TREATMENT","2013-10-22T11:54",55],
["CDISCPILOT01","LB","CDISC003",150,"K","Potassium","CHEMISTRY","4.3","mEq/L","3.4","5.4","4.3",4.3,"mmol/L",3.4,5.4,"NORMAL","",8,"WEEK 8","TREATMENT","2013-10-22T11:54",55],
["CDISCPILOT01","LB","CDISC003",156,"SODIUM","Sodium","CHEMISTRY","136","mEq/L","135","145","136",136,"mmol/L",135,145,"NORMAL","",8,"WEEK 8","TREATMENT","2013-10-22T11:54",55],
["CDISCPILOT01","LB","CDISC003",157,"PHOS","Phosphate","CHEMISTRY","3.3","mg/dL","2.2","5.1","1.06557",1.06557,"mmol/L",0.71,1.65,"NORMAL","",8,"WEEK 8","TREATMENT","2013-10-22T11:54",55],
["CDISCPILOT01","LB","CDISC003",159,"PROT","Protein","CHEMISTRY","7.4","g/dL","6","8","74",74,"g/L",60,80,"NORMAL","",8,"WEEK 8","TREATMENT","2013-10-22T11:54",55],
["CDISCPILOT01","LB","CDISC003",161,"URATE","Urate","CHEMISTRY","3.6","mg/dL","2.5","7.5","214.128",214.128,"umol/L",149,446,"NORMAL","",8,"WEEK 8","TREATMENT","2013-10-22T11:54",55],
["CDISCPILOT01","LB","CDISC003",163,"ALB","Albumin","CHEMISTRY","4.1","g/dL","3.3","4.9","41",41,"g/L",33,49,"NORMAL","",9,"WEEK 12","TREATMENT","2013-11-05T13:54",69],
["CDISCPILOT01","LB","CDISC003",164,"ALP","Alkaline Phosphatase","CHEMISTRY","62","U/L","35","115","62",62,"U/L",35,115,"NORMAL","",9,"WEEK 12","TREATMENT","2013-11-05T13:54",69],
["CDISCPILOT01","LB","CDISC003",165,"ALT","Alanine Aminotransferase","CHEMISTRY","24","U/L","6","43","24",24,"U/L",6,43,"NORMAL","",9,"WEEK 12","TREATMENT","2013-11-05T13:54",69],
["CDISCPILOT01","LB","CDISC003",166,"AST","Aspartate Aminotransferase","CHEMISTRY","25","U/L","11","36","25",25,"U/L",11,36,"NORMAL","",9,"WEEK 12","TREATMENT","2013-11-05T13:54",69],
["CDISCPILOT01","LB","CDISC003",168,"BILI","Bilirubin","CHEMISTRY","0.5","mg/dL","0.2","1.2","8.55",8.55,"umol/L",3,21,"NORMAL","",9,"WEEK 12","TREATMENT","2013-11-05T13:54",69],
["CDISCPILOT01","LB","CDISC003",169,"UREAN","Urea Nitrogen","CHEMISTRY","13","mg/dL","4","24","4.641",4.641,"mmol/L",1.4,8.6,"NORMAL","",9,"WEEK 12","TREATMENT","2013-11-05T13:54",69],
["CDISCPILOT01","LB","CDISC003",170,"CA","Calcium","CHEMISTRY","9.3","mg/dL","8.4","10.3","2.32035",2.32035,"mmol/L",2.1,2.57,"NORMAL","",9,"WEEK 12","TREATMENT","2013-11-05T13:54",69],
["CDISCPILOT01","LB","CDISC003",171,"CHOL","Cholesterol","CHEMISTRY","232","mg/dL","149","286","5.99952",5.99952,"mmol/L",3.85,7.4,"NORMAL","",9,"WEEK 12","TREATMENT","2013-11-05T13:54",69],
["CDISCPILOT01","LB","CDISC003",172,"CK","Creatine Kinase","CHEMISTRY","112","U/L","22","198","112",112,"U/L",22,198,"NORMAL","",9,"WEEK 12","TREATMENT","2013-11-05T13:54",69],
["CDISCPILOT01","LB","CDISC003",173,"CL","Chloride","CHEMISTRY","106","mEq/L","94","112","106",106,"mmol/L",94,112,"NORMAL","",9,"WEEK 12","TREATMENT","2013-11-05T13:54",69],
["CDISCPILOT01","LB","CDISC003",175,"CREAT","Creatinine","CHEMISTRY","1.3","mg/dL","0.8","1.6","114.92",114.92,"umol/L",71,141,"NORMAL","",9,"WEEK 12","TREATMENT","2013-11-05T13:54",69],
["CDISCPILOT01","LB","CDISC003",177,"GGT","Gamma Glutamyl Transferase","CHEMISTRY","13","U/L","10","50","13",13,"U/L",10,50,"NORMAL","",9,"WEEK 12","TREATMENT","2013-11-05T13:54",69],
["CDISCPILOT01","LB","CDISC003",178,"GLUC","Glucose","CHEMISTRY","93","mg/dL","50","250","5.16243",5.16243,"mmol/L",2.8,13.9,"NORMAL","",9,"WEEK 12","TREATMENT","2013-11-05T13:54",69],
["CDISCPILOT01","LB","CDISC003",181,"K","Potassium","CHEMISTRY","4.1","mEq/L","3.4","5.4","4.1",4.1,"mmol/L",3.4,5.4,"NORMAL","",9,"WEEK 12","TREATMENT","2013-11-05T13:54",69],
["CDISCPILOT01","LB","CDISC003",188,"SODIUM","Sodium","CHEMISTRY","139","mEq/L","135","145","139",139,"mmol/L",135,145,"NORMAL","",9,"WEEK 12","TREATMENT","2013-11-05T13:54",69],
["CDISCPILOT01","LB","CDISC003",190,"PHOS","Phosphate","CHEMISTRY","3.5","mg/dL","2.2","5.1","1.13015",1.13015,"mmol/L",0.71,1.65,"NORMAL","",9,"WEEK 12","TREATMENT","2013-11-05T13:54",69],
["CDISCPILOT01","LB","CDISC003",192,"PROT","Protein","CHEMISTRY","7.4","g/dL","6","8","74",74,"g/L",60,80,"NORMAL","",9,"WEEK 12","TREATMENT","2013-11-05T13:54",69],
["CDISCPILOT01","LB","CDISC003",195,"URATE","Urate","CHEMISTRY","3.6","mg/dL","2.5","7.5","214.128",214.128,"umol/L",149,446,"NORMAL","",9,"WEEK 12","TREATMENT","2013-11-05T13:54",69],
["CDISCPILOT01","LB","CDISC004",1,"ALB","Albumin","CHEMISTRY","4.5","g/dL","3.3","4.9","45",45,"g/L",33,49,"NORMAL","Y",1,"SCREENING 1","SCREENING","2013-10-01T12:50",-7],
["CDISCPILOT01","LB","CDISC004",2,"ALP","Alkaline Phosphatase","CHEMISTRY","60","U/L","35","115","60",60,"U/L",35,115,"NORMAL","Y",1,"SCREENING 1","SCREENING","2013-10-01T12:50",-7],
["CDISCPILOT01","LB","CDISC004",3,"ALT","Alanine Aminotransferase","CHEMISTRY","13","U/L","6","34","13",13,"U/L",6,34,"NORMAL","Y",1,"SCREENING 1","SCREENING","2013-10-01T12:50",-7],
["CDISCPILOT01","LB","CDISC004",4,"AST","Aspartate Aminotransferase","CHEMISTRY","22","U/L","9","34","22",22,"U/L",9,34,"NORMAL","Y",1,"SCREENING 1","SCREENING","2013-10-01T12:50",-7],
["CDISCPILOT01","LB","CDISC004",6,"BILI","Bilirubin","CHEMISTRY","0.5","mg/dL","0.2","1.2","8.55",8.55,"umol/L",3,21,"NORMAL","Y",1,"SCREENING 1","SCREENING","2013-10-01T12:50",-7],
["CDISCPILOT01","LB","CDISC004",7,"UREAN","Urea Nitrogen","CHEMISTRY","14","mg/dL","4","24","4.998",4.998,"mmol/L",1.4,8.6,"NORMAL","Y",1,"SCREENING 1","SCREENING","2013-10-01T12:50",-7],
["CDISCPILOT01","LB","CDISC004",8,"CA","Calcium","CHEMISTRY","9.6","mg/dL","8.4","10.3","2.3952",2.3952,"mmol/L",2.1,2.57,"NORMAL","Y",1,"SCREENING 1","SCREENING","2013-10-01T12:50",-7],
["CDISCPILOT01","LB","CDISC004",9,"CHOL","Cholesterol","CHEMISTRY","227","mg/dL","156","300","5.87022",5.87022,"mmol/L",4.03,7.76,"NORMAL","Y",1,"SCREENING 1","SCREENING","2013-10-01T12:50",-7],
["CDISCPILOT01","LB","CDISC004",10,"CK","Creatine Kinase","CHEMISTRY","142","U/L","21","169","142",142,"U/L",21,169,"NORMAL","Y",1,"SCREENING 1","SCREENING","2013-10-01T12:50",-7],
["CDISCPILOT01","LB","CDISC004",11,"CL","Chloride","CHEMISTRY","104","mEq/L","94","112","104",104,"mmol/L",94,112,"NORMAL","Y",1,"SCREENING 1","SCREENING","2013-10-01T12:50",-7],
["CDISCPILOT01","LB","CDISC004",13,"CREAT","Creatinine","CHEMISTRY","1.1","mg/dL","0.7","1.4","97.24",97.24,"umol/L",62,124,"NORMAL","Y",1,"SCREENING 1","SCREENING","2013-10-01T12:50",-7],
["CDISCPILOT01","LB","CDISC004",15,"GGT","Gamma Glutamyl Transferase","CHEMISTRY","10","U/L","5","50","10",10,"U/L",5,50,"NORMAL","Y",1,"SCREENING 1","SCREENING","2013-10-01T12:50",-7],
["CDISCPILOT01","LB","CDISC004",16,"GLUC","Glucose","CHEMISTRY","85","mg/dL","50","250","4.71835",4.71835,"mmol/L",2.8,13.9,"NORMAL","Y",1,"SCREENING 1","SCREENING","2013-10-01T12:50",-7],
["CDISCPILOT01","LB","CDISC004",19,"K","Potassium","CHEMISTRY","3.6","mEq/L","3.4","5.4","3.6",3.6,"mmol/L",3.4,5.4,"NORMAL","Y",1,"SCREENING 1","SCREENING","2013-10-01T12:50",-7],
["CDISCPILOT01","LB","CDISC004",26,"SODIUM","Sodium","CHEMISTRY","138","mEq/L","135","145","138",138,"mmol/L",135,145,"NORMAL","Y",1,"SCREENING 1","SCREENING","2013-10-01T12:50",-7],
["CDISCPILOT01","LB","CDISC004",28,"PHOS","Phosphate","CHEMISTRY","4.0","mg/dL","2.2","5.1","1.2916",1.2916,"mmol/L",0.71,1.65,"NORMAL","Y",1,"SCREENING 1","SCREENING","2013-10-01T12:50",-7],
["CDISCPILOT01","LB","CDISC004",30,"PROT","Protein","CHEMISTRY","7.4","g/dL","6","8","74",74,"g/L",60,80,"NORMAL","Y",1,"SCREENING 1","SCREENING","2013-10-01T12:50",-7],
["CDISCPILOT01","LB","CDISC004",34,"URATE","Urate","CHEMISTRY","5.1","mg/dL","2.5","7.5","303.348",303.348,"umol/L",149,446,"NORMAL","Y",1,"SCREENING 1","SCREENING","2013-10-01T12:50",-7],
["CDISCPILOT01","LB","CDISC004",38,"ALB","Albumin","CHEMISTRY","4.1","g/dL","3.3","4.9","41",41,"g/L",33,49,"NORMAL","",4,"WEEK 2","TREATMENT","2013-10-24T10:41",17],
["CDISCPILOT01","LB","CDISC004",39,"ALP","Alkaline Phosphatase","CHEMISTRY","61","U/L","35","115","61",61,"U/L",35,115,"NORMAL","",4,"WEEK 2","TREATMENT","2013-10-24T10:41",17],
["CDISCPILOT01","LB","CDISC004",40,"ALT","Alanine Aminotransferase","CHEMISTRY","9","U/L","6","34","9",9,"U/L",6,34,"NORMAL","",4,"WEEK 2","TREATMENT","2013-10-24T10:41",17],
["CDISCPILOT01","LB","CDISC004",41,"AST","Aspartate Aminotransferase","CHEMISTRY","18","U/L","9","34","18",18,"U/L",9,34,"NORMAL","",4,"WEEK 2","TREATMENT","2013-10-24T10:41",17],
["CDISCPILOT01","LB","CDISC004",43,"BILI","Bilirubin","CHEMISTRY","0.4","mg/dL","0.2","1.2","6.84",6.84,"umol/L",3,21,"NORMAL","",4,"WEEK 2","TREATMENT","2013-10-24T10:41",17],
["CDISCPILOT01","LB","CDISC004",44,"UREAN","Urea Nitrogen","CHEMISTRY","15","mg/dL","4","24","5.355",5.355,"mmol/L",1.4,8.6,"NORMAL","",4,"WEEK 2","TREATMENT","2013-10-24T10:41",17],
["CDISCPILOT01","LB","CDISC004",45,"CA","Calcium","CHEMISTRY","9.2","mg/dL","8.4","10.3","2.2954",2.2954,"mmol/L",2.1,2.57,"NORMAL","",4,"WEEK 2","TREATMENT","2013-10-24T10:41",17],
["CDISCPILOT01","LB","CDISC004",46,"CHOL","Cholesterol","CHEMISTRY","198","mg/dL","156","300","5.12028",5.12028,"mmol/L",4.03,7.76,"NORMAL","",4,"WEEK 2","TREATMENT","2013-10-24T10:41",17],
["CDISCPILOT01","LB","CDISC004",47,"CK","Creatine Kinase","CHEMISTRY","99","U/L","21","169","99",99,"U/L",21,169,"NORMAL","",4,"WEEK 2","TREATMENT","2013-10-24T10:41",17],
["CDISCPILOT01","LB","CDISC004",48,"CL","Chloride","CHEMISTRY","108","mEq/L","94","112","108",108,"mmol/L",94,112,"NORMAL","",4,"WEEK 2","TREATMENT","2013-10-24T10:41",17],
["CDISCPILOT01","LB","CDISC004",50,"CREAT","Creatinine","CHEMISTRY","1.0","mg/dL","0.7","1.4","88.4",88.4,"umol/L",62,124,"NORMAL","",4,"WEEK 2","TREATMENT","2013-10-24T10:41",17],
["CDISCPILOT01","LB","CDISC004",52,"GGT","Gamma Glutamyl Transferase","CHEMISTRY","9","U/L","5","50","9",9,"U/L",5,50,"NORMAL","",4,"WEEK 2","TREATMENT","2013-10-24T10:41",17],
["CDISCPILOT01","LB","CDISC004",53,"GLUC","Glucose","CHEMISTRY","81","mg/dL","50","250","4.49631",4.49631,"mmol/L",2.8,13.9,"NORMAL","",4,"WEEK 2","TREATMENT","2013-10-24T10:41",17],
["CDISCPILOT01","LB","CDISC004",56,"K","Potassium","CHEMISTRY","4.4","mEq/L","3.4","5.4","4.4",4.4,"mmol/L",3.4,5.4,"NORMAL","",4,"WEEK 2","TREATMENT","2013-10-24T10:41",17],
["CDISCPILOT01","LB","CDISC004",63,"SODIUM","Sodium","CHEMISTRY","141","mEq/L","135","145","141",141,"mmol/L",135,145,"NORMAL","",4,"WEEK 2","TREATMENT","2013-10-24T10:41",17],
["CDISCPILOT01","LB","CDISC004",65,"PHOS","Phosphate","CHEMISTRY","4.1","mg/dL","2.2","5.1","1.32389",1.32389,"mmol/L",0.71,1.65,"NORMAL","",4,"WEEK 2","TREATMENT","2013-10-24T10:41",17],
["CDISCPILOT01","LB","CDISC004",67,"PROT","Protein","CHEMISTRY","6.8","g/dL","6","8","68",68,"g/L",60,80,"NORMAL","",4,"WEEK 2","TREATMENT","2013-10-24T10:41",17],
["CDISCPILOT01","LB","CDISC004",70,"URATE","Urate","CHEMISTRY","4.2","mg/dL","2.5","7.5","249.816",249.816,"umol/L",149,446,"NORMAL","",4,"WEEK 2","TREATMENT","2013-10-24T10:41",17],
["CDISCPILOT01","LB","CDISC004",73,"ALB","Albumin","CHEMISTRY","4.7","g/dL","3.3","4.9","47",47,"g/L",33,49,"NORMAL","",5,"WEEK 4","TREATMENT","2013-11-08T11:32",32],
["CDISCPILOT01","LB","CDISC004",74,"ALP","Alkaline Phosphatase","CHEMISTRY","69","U/L","35","115","69",69,"U/L",35,115,"NORMAL","",5,"WEEK 4","TREATMENT","2013-11-08T11:32",32],
["CDISCPILOT01","LB","CDISC004",75,"ALT","Alanine Aminotransferase","CHEMISTRY","11","U/L","6","34","11",11,"U/L",6,34,"NORMAL","",5,"WEEK 4","TREATMENT","2013-11-08T11:32",32],
["CDISCPILOT01","LB","CDISC004",76,"AST","Aspartate Aminotransferase","CHEMISTRY","25","U/L","9","34","25",25,"U/L",9,34,"NORMAL","",5,"WEEK 4","TREATMENT","2013-11-08T11:32",32],
["CDISCPILOT01","LB","CDISC004",78,"BILI","Bilirubin","CHEMISTRY","0.5","mg/dL","0.2","1.2","8.55",8.55,"umol/L",3,21,"NORMAL","",5,"WEEK 4","TREATMENT","2013-11-08T11:32",32],
["CDISCPILOT01","LB","CDISC004",79,"UREAN","Urea Nitrogen","CHEMISTRY","12","mg/dL","4","24","4.284",4.284,"mmol/L",1.4,8.6,"NORMAL","",5,"WEEK 4","TREATMENT","2013-11-08T11:32",32],
["CDISCPILOT01","LB","CDISC004",80,"CA","Calcium","CHEMISTRY","9.4","mg/dL","8.4","10.3","2.3453",2.3453,"mmol/L",2.1,2.57,"NORMAL","",5,"WEEK 4","TREATMENT","2013-11-08T11:32",32],
["CDISCPILOT01","LB","CDISC004",81,"CHOL","Cholesterol","CHEMISTRY","220","mg/dL","156","300","5.6892",5.6892,"mmol/L",4.03,7.76,"NORMAL","",5,"WEEK 4","TREATMENT","2013-11-08T11:32",32],
["CDISCPILOT01","LB","CDISC004",82,"CK","Creatine Kinase","CHEMISTRY","140","U/L","21","169","140",140,"U/L",21,169,"NORMAL","",5,"WEEK 4","TREATMENT","2013-11-08T11:32",32],
["CDISCPILOT01","LB","CDISC004",83,"CL","Chloride","CHEMISTRY","111","mEq/L","94","112","111",111,"mmol/L",94,112,"NORMAL","",5,"WEEK 4","TREATMENT","2013-11-08T11:32",32],
["CDISCPILOT01","LB","CDISC004",84,"CREAT","Creatinine","CHEMISTRY","1.0","mg/dL","0.7","1.4","88.4",88.4,"umol/L",62,124,"NORMAL","",5,"WEEK 4","TREATMENT","2013-11-08T11:32",32],
["CDISCPILOT01","LB","CDISC004",86,"GGT","Gamma Glutamyl Transferase","CHEMISTRY","12","U/L","5","50","12",12,"U/L",5,50,"NORMAL","",5,"WEEK 4","TREATMENT","2013-11-08T11:32",32],
["CDISCPILOT01","LB","CDISC004",87,"GLUC","Glucose","CHEMISTRY","94","mg/dL","50","250","5.21794",5.21794,"mmol/L",2.8,13.9,"NORMAL","",5,"WEEK 4","TREATMENT","2013-11-08T11:32",32],
["CDISCPILOT01","LB","CDISC004",90,"K","Potassium","CHEMISTRY","4.7","mEq/L","3.4","5.4","4.7",4.7,"mmol/L",3.4,5.4,"NORMAL","",5,"WEEK 4","TREATMENT","2013-11-08T11:32",32],
["CDISCPILOT01","LB","CDISC004",96,"SODIUM","Sodium","CHEMISTRY","143","mEq/L","135","145","143",143,"mmol/L",135,145,"NORMAL","",5,"WEEK 4","TREATMENT","2013-11-08T11:32",32],
["CDISCPILOT01","LB","CDISC004",97,"PHOS","Phosphate","CHEMISTRY","4.1","mg/dL","2.2","5.1","1.32389",1.32389,"mmol/L",0.71,1.65,"NORMAL","",5,"WEEK 4","TREATMENT","2013-11-08T11:32",32],
["CDISCPILOT01","LB","CDISC004",99,"PROT","Protein","CHEMISTRY","7.6","g/dL","6","8","76",76,"g/L",60,80,"NORMAL","",5,"WEEK 4","TREATMENT","2013-11-08T11:32",32],
["CDISCPILOT01","LB","CDISC004",101,"URATE","Urate","CHEMISTRY","4.3","mg/dL","2.5","7.5","255.764",255.764,"umol/L",149,446,"NORMAL","",5,"WEEK 4","TREATMENT","2013-11-08T11:32",32],
["CDISCPILOT01","LB","CDISC004",103,"ALB","Albumin","CHEMISTRY","4.3","g/dL","3.3","4.9","43",43,"g/L",33,49,"NORMAL","",7,"WEEK 6","TREATMENT","2013-11-19T13:22",43],
["CDISCPILOT01","LB","CDISC004",104,"ALP","Alkaline Phosphatase","CHEMISTRY","65","U/L","35","115","65",65,"U/L",35,115,"NORMAL","",7,"WEEK 6","TREATMENT","2013-11-19T13:22",43],
["CDISCPILOT01","LB","CDISC004",105,"ALT","Alanine Aminotransferase","CHEMISTRY","10","U/L","6","34","10",10,"U/L",6,34,"NORMAL","",7,"WEEK 6","TREATMENT","2013-11-19T13:22",43],
["CDISCPILOT01","LB","CDISC004",106,"AST","Aspartate Aminotransferase","CHEMISTRY","22","U/L","9","34","22",22,"U/L",9,34,"NORMAL","",7,"WEEK 6","TREATMENT","2013-11-19T13:22",43],
["CDISCPILOT01","LB","CDISC004",108,"BILI","Bilirubin","CHEMISTRY","0.4","mg/dL","0.2","1.2","6.84",6.84,"umol/L",3,21,"NORMAL","",7,"WEEK 6","TREATMENT","2013-11-19T13:22",43],
["CDISCPILOT01","LB","CDISC004",109,"UREAN","Urea Nitrogen","CHEMISTRY","13","mg/dL","4","24","4.641",4.641,"mmol/L",1.4,8.6,"NORMAL","",7,"WEEK 6","TREATMENT","2013-11-19T13:22",43],
["CDISCPILOT01","LB","CDISC004",110,"CA","Calcium","CHEMISTRY","9.3","mg/dL","8.4","10.3","2.32035",2.32035,"mmol/L",2.1,2.57,"NORMAL","",7,"WEEK 6","TREATMENT","2013-11-19T13:22",43],
["CDISCPILOT01","LB","CDISC004",111,"CHOL","Cholesterol","CHEMISTRY","203","mg/dL","156","300","5.24958",5.24958,"mmol/L",4.03,7.76,"NORMAL","",7,"WEEK 6","TREATMENT","2013-11-19T13:22",43],
["CDISCPILOT01","LB","CDISC004",112,"CK","Creatine Kinase","CHEMISTRY","134","U/L","21","169","134",134,"U/L",21,169,"NORMAL","",7,"WEEK 6","TREATMENT","2013-11-19T13:22",43],
["CDISCPILOT01","LB","CDISC004",113,"CL","Chloride","CHEMISTRY","106","mEq/L","94","112","106",106,"mmol/L",94,112,"NORMAL","",7,"WEEK 6","TREATMENT","2013-11-19T13:22",43],
["CDISCPILOT01","LB","CDISC004",114,"CREAT","Creatinine","CHEMISTRY","0.9","mg/dL","0.7","1.4","79.56",79.56,"umol/L",62,124,"NORMAL","",7,"WEEK 6","TREATMENT","2013-11-19T13:22",43],
["CDISCPILOT01","LB","CDISC004",116,"GGT","Gamma Glutamyl Transferase","CHEMISTRY","10","U/L","5","50","10",10,"U/L",5,50,"NORMAL","",7,"WEEK 6","TREATMENT","2013-11-19T13:22",43],
["CDISCPILOT01","LB","CDISC004",117,"GLUC","Glucose","CHEMISTRY","107","mg/dL","50","250","5.93957",5.93957,"mmol/L",2.8,13.9,"NORMAL","",7,"WEEK 6","TREATMENT","2013-11-19T13:22",43],
["CDISCPILOT01","LB","CDISC004",120,"K","Potassium","CHEMISTRY","4.4","mEq/L","3.4","5.4","4.4",4.4,"mmol/L",3.4,5.4,"NORMAL","",7,"WEEK 6","TREATMENT","2013-11-19T13:22",43],
["CDISCPILOT01","LB","CDISC004",126,"SODIUM","Sodium","CHEMISTRY","142","mEq/L","135","145","142",142,"mmol/L",135,145,"NORMAL","",7,"WEEK 6","TREATMENT","2013-11-19T13:22",43],
["CDISCPILOT01","LB","CDISC004",127,"PHOS","Phosphate","CHEMISTRY","3.6","mg/dL","2.2","5.1","1.16244",1.16244,"mmol/L",0.71,1.65,"NORMAL","",7,"WEEK 6","TREATMENT","2013-11-19T13:22",43],
["CDISCPILOT01","LB","CDISC004",129,"PROT","Protein","CHEMISTRY","7.1","g/dL","6","8","71",71,"g/L",60,80,"NORMAL","",7,"WEEK 6","TREATMENT","2013-11-19T13:22",43],
["CDISCPILOT01","LB","CDISC004",131,"URATE","Urate","CHEMISTRY","4.0","mg/dL","2.5","7.5","237.92",237.92,"umol/L",149,446,"NORMAL","",7,"WEEK 6","TREATMENT","2013-11-19T13:22",43],
["CDISCPILOT01","LB","CDISC004",133,"ALB","Albumin","CHEMISTRY","4.3","g/dL","3.3","4.9","43",43,"g/L",33,49,"NORMAL","",8,"WEEK 8","TREATMENT","2013-12-03T12:27",57],
["CDISCPILOT01","LB","CDISC004",134,"ALP","Alkaline Phosphatase","CHEMISTRY","62","U/L","35","115","62",62,"U/L",35,115,"NORMAL","",8,"WEEK 8","TREATMENT","2013-12-03T12:27",57],
["CDISCPILOT01","LB","CDISC004",135,"ALT","Alanine Aminotransferase","CHEMISTRY","7","U/L","6","34","7",7,"U/L",6,34,"NORMAL","",8,"WEEK 8","TREATMENT","2013-12-03T12:27",57],
["CDISCPILOT01","LB","CDISC004",136,"AST","Aspartate Aminotransferase","CHEMISTRY","16","U/L","9","34","16",16,"U/L",9,34,"NORMAL","",8,"WEEK 8","TREATMENT","2013-12-03T12:27",57],
["CDISCPILOT01","LB","CDISC004",138,"BILI","Bilirubin","CHEMISTRY","0.3","mg/dL","0.2","1.2","5.13",5.13,"umol/L",3,21,"NORMAL","",8,"WEEK 8","TREATMENT","2013-12-03T12:27",57],
["CDISCPILOT01","LB","CDISC004",139,"UREAN","Urea Nitrogen","CHEMISTRY","11","mg/dL","4","24","3.927",3.927,"mmol/L",1.4,8.6,"NORMAL","",8,"WEEK 8","TREATMENT","2013-12-03T12:27",57],
["CDISCPILOT01","LB","CDISC004",140,"CA","Calcium","CHEMISTRY","9.2","mg/dL","8.4","10.3","2.2954",2.2954,"mmol/L",2.1,2.57,"NORMAL","",8,"WEEK 8","TREATMENT","2013-12-03T12:27",57],
["CDISCPILOT01","LB","CDISC004",141,"CHOL","Cholesterol","CHEMISTRY","196","mg/dL","156","300","5.06856",5.06856,"mmol/L",4.03,7.76,"NORMAL","",8,"WEEK 8","TREATMENT","2013-12-03T12:27",57],
["CDISCPILOT01","LB","CDISC004",142,"CK","Creatine Kinase","CHEMISTRY","132","U/L","21","169","132",132,"U/L",21,169,"NORMAL","",8,"WEEK 8","TREATMENT","2013-12-03T12:27",57],
["CDISCPILOT01","LB","CDISC004",143,"CL","Chloride","CHEMISTRY","107","mEq/L","94","112","107",107,"mmol/L",94,112,"NORMAL","",8,"WEEK 8","TREATMENT","2013-12-03T12:27",57],
["CDISCPILOT01","LB","CDISC004",144,"CREAT","Creatinine","CHEMISTRY","0.9","mg/dL","0.7","1.4","79.56",79.56,"umol/L",62,124,"NORMAL","",8,"WEEK 8","TREATMENT","2013-12-03T12:27",57],
["CDISCPILOT01","LB","CDISC004",146,"GGT","Gamma Glutamyl Transferase","CHEMISTRY","9","U/L","5","50","9",9,"U/L",5,50,"NORMAL","",8,"WEEK 8","TREATMENT","2013-12-03T12:27",57],
["CDISCPILOT01","LB","CDISC004",147,"GLUC","Glucose","CHEMISTRY","94","mg/dL","50","250","5.21794",5.21794,"mmol/L",2.8,13.9,"NORMAL","",8,"WEEK 8","TREATMENT","2013-12-03T12:27",57],
["CDISCPILOT01","LB","CDISC004",150,"K","Potassium","CHEMISTRY","4.6","mEq/L","3.4","5.4","4.6",4.6,"mmol/L",3.4,5.4,"NORMAL","",8,"WEEK 8","TREATMENT","2013-12-03T12:27",57],
["CDISCPILOT01","LB","CDISC004",156,"SODIUM","Sodium","CHEMISTRY","141","mEq/L","135","145","141",141,"mmol/L",135,145,"NORMAL","",8,"WEEK 8","TREATMENT","2013-12-03T12:27",57],
["CDISCPILOT01","LB","CDISC004",157,"PHOS","Phosphate","CHEMISTRY","4.0","mg/dL","2.2","5.1","1.2916",1.2916,"mmol/L",0.71,1.65,"NORMAL","",8,"WEEK 8","TREATMENT","2013-12-03T12:27",57],
["CDISCPILOT01","LB","CDISC004",159,"PROT","Protein","CHEMISTRY","6.9","g/dL","6","8","69",69,"g/L",60,80,"NORMAL","",8,"WEEK 8","TREATMENT","2013-12-03T12:27",57],
["CDISCPILOT01","LB","CDISC004",161,"URATE","Urate","CHEMISTRY","4.6","mg/dL","2.5","7.5","273.608",273.608,"umol/L",149,446,"NORMAL","",8,"WEEK 8","TREATMENT","2013-12-03T12:27",57],
["CDISCPILOT01","LB","CDISC004",163,"ALB","Albumin","CHEMISTRY","4.4","g/dL","3.3","4.9","44",44,"g/L",33,49,"NORMAL","",9,"WEEK 12","TREATMENT","2013-12-31T15:07",85],
["CDISCPILOT01","LB","CDISC004",164,"ALP","Alkaline Phosphatase","CHEMISTRY","57","U/L","35","115","57",57,"U/L",35,115,"NORMAL","",9,"WEEK 12","TREATMENT","2013-12-31T15:07",85],
["CDISCPILOT01","LB","CDISC004",165,"ALT","Alanine Aminotransferase","CHEMISTRY","14","U/L","6","34","14",14,"U/L",6,34,"NORMAL","",9,"WEEK 12","TREATMENT","2013-12-31T15:07",85],
["CDISCPILOT01","LB","CDISC004",166,"AST","Aspartate Aminotransferase","CHEMISTRY","22","U/L","9","34","22",22,"U/L",9,34,"NORMAL","",9,"WEEK 12","TREATMENT","2013-12-31T15:07",85],
["CDISCPILOT01","LB","CDISC004",168,"BILI","Bilirubin","CHEMISTRY","0.5","mg/dL","0.2","1.2","8.55",8.55,"umol/L",3,21,"NORMAL","",9,"WEEK 12","TREATMENT","2013-12-31T15:07",85],
["CDISCPILOT01","LB","CDISC004",169,"UREAN","Urea Nitrogen","CHEMISTRY","13","mg/dL","4","24","4.641",4.641,"mmol/L",1.4,8.6,"NORMAL","",9,"WEEK 12","TREATMENT","2013-12-31T15:07",85],
["CDISCPILOT01","LB","CDISC004",170,"CA","Calcium","CHEMISTRY","9.3","mg/dL","8.4","10.3","2.32035",2.32035,"mmol/L",2.1,2.57,"NORMAL","",9,"WEEK 12","TREATMENT","2013-12-31T15:07",85],
["CDISCPILOT01","LB","CDISC004",171,"CHOL","Cholesterol","CHEMISTRY","205","mg/dL","156","300","5.3013",5.3013,"mmol/L",4.03,7.76,"NORMAL","",9,"WEEK 12","TREATMENT","2013-12-31T15:07",85],
["CDISCPILOT01","LB","CDISC004",172,"CK","Creatine Kinase","CHEMISTRY","167","U/L","21","169","167",167,"U/L",21,169,"NORMAL","",9,"WEEK 12","TREATMENT","2013-12-31T15:07",85],
["CDISCPILOT01","LB","CDISC004",173,"CL","Chloride","CHEMISTRY","103","mEq/L","94","112","103",103,"mmol/L",94,112,"NORMAL","",9,"WEEK 12","TREATMENT","2013-12-31T15:07",85],
["CDISCPILOT01","LB","CDISC004",175,"CREAT","Creatinine","CHEMISTRY","1.1","mg/dL","0.7","1.4","97.24",97.24,"umol/L",62,124,"NORMAL","",9,"WEEK 12","TREATMENT","2013-12-31T15:07",85],
["CDISCPILOT01","LB","CDISC004",177,"GGT","Gamma Glutamyl Transferase","CHEMISTRY","10","U/L","5","50","10",10,"U/L",5,50,"NORMAL","",9,"WEEK 12","TREATMENT","2013-12-31T15:07",85],
["CDISCPILOT01","LB","CDISC004",178,"GLUC","Glucose","CHEMISTRY","117","mg/dL","50","250","6.49467",6.49467,"mmol/L",2.8,13.9,"NORMAL","",9,"WEEK 12","TREATMENT","2013-12-31T15:07",85],
["CDISCPILOT01","LB","CDISC004",181,"K","Potassium","CHEMISTRY","4.1","mEq/L","3.4","5.4","4.1",4.1,"mmol/L",3.4,5.4,"NORMAL","",9,"WEEK 12","TREATMENT","2013-12-31T15:07",85],
["CDISCPILOT01","LB","CDISC004",188,"SODIUM","Sodium","CHEMISTRY","140","mEq/L","135","145","140",140,"mmol/L",135,145,"NORMAL","",9,"WEEK 12","TREATMENT","2013-12-31T15:07",85],
["CDISCPILOT01","LB","CDISC004",190,"PHOS","Phosphate","CHEMISTRY","4.1","mg/dL","2.2","5.1","1.32389",1.32389,"mmol/L",0.71,1.65,"NORMAL","",9,"WEEK 12","TREATMENT","2013-12-31T15:07",85],
["CDISCPILOT01","LB","CDISC004",192,"PROT","Protein","CHEMISTRY","7.7","g/dL","6","8","77",77,"g/L",60,80,"NORMAL","",9,"WEEK 12","TREATMENT","2013-12-31T15:07",85],
["CDISCPILOT01","LB","CDISC004",195,"URATE","Urate","CHEMISTRY","4.4","mg/dL","2.5","7.5","261.712",261.712,"umol/L",149,446,"NORMAL","",9,"WEEK 12","TREATMENT","2013-12-31T15:07",85],
["CDISCPILOT01","LB","CDISC004",198,"ALB","Albumin","CHEMISTRY","4.5","g/dL","3.3","4.9","45",45,"g/L",33,49,"NORMAL","",10,"WEEK 16","TREATMENT","2014-01-27T11:49",112],
["CDISCPILOT01","LB","CDISC004",199,"ALP","Alkaline Phosphatase","CHEMISTRY","59","U/L","35","115","59",59,"U/L",35,115,"NORMAL","",10,"WEEK 16","TREATMENT","2014-01-27T11:49",112],
["CDISCPILOT01","LB","CDISC004",200,"ALT","Alanine Aminotransferase","CHEMISTRY","13","U/L","6","34","13",13,"U/L",6,34,"NORMAL","",10,"WEEK 16","TREATMENT","2014-01-27T11:49",112],
["CDISCPILOT01","LB","CDISC004",201,"AST","Aspartate Aminotransferase","CHEMISTRY","24","U/L","9","34","24",24,"U/L",9,34,"NORMAL","",10,"WEEK 16","TREATMENT","2014-01-27T11:49",112],
["CDISCPILOT01","LB","CDISC004",203,"BILI","Bilirubin","CHEMISTRY","0.5","mg/dL","0.2","1.2","8.55",8.55,"umol/L",3,21,"NORMAL","",10,"WEEK 16","TREATMENT","2014-01-27T11:49",112],
["CDISCPILOT01","LB","CDISC004",204,"UREAN","Urea Nitrogen","CHEMISTRY","14","mg/dL","4","24","4.998",4.998,"mmol/L",1.4,8.6,"NORMAL","",10,"WEEK 16","TREATMENT","2014-01-27T11:49",112],
["CDISCPILOT01","LB","CDISC004",205,"CA","Calcium","CHEMISTRY","9.8","mg/dL","8.4","10.3","2.4451",2.4451,"mmol/L",2.1,2.57,"NORMAL","",10,"WEEK 16","TREATMENT","2014-01-27T11:49",112],
["CDISCPILOT01","LB","CDISC004",206,"CHOL","Cholesterol","CHEMISTRY","211","mg/dL","156","300","5.45646",5.45646,"mmol/L",4.03,7.76,"NORMAL","",10,"WEEK 16","TREATMENT","2014-01-27T11:49",112],
["CDISCPILOT01","LB","CDISC004",207,"CK","Creatine Kinase","CHEMISTRY","176","U/L","21","169","176",176,"U/L",21,169,"HIGH","",10,"WEEK 16","TREATMENT","2014-01-27T11:49",112],
["CDISCPILOT01","LB","CDISC004",208,"CL","Chloride","CHEMISTRY","108","mEq/L","94","112","108",108,"mmol/L",94,112,"NORMAL","",10,"WEEK 16","TREATMENT","2014-01-27T11:49",112],
["CDISCPILOT01","LB","CDISC004",209,"CREAT","Creatinine","CHEMISTRY","1.0","mg/dL","0.7","1.4","88.4",88.4,"umol/L",62,124,"NORMAL","",10,"WEEK 16","TREATMENT","2014-01-27T11:49",112],
["CDISCPILOT01","LB","CDISC004",211,"GGT","Gamma Glutamyl Transferase","CHEMISTRY","9","U/L","5","50","9",9,"U/L",5,50,"NORMAL","",10,"WEEK 16","TREATMENT","2014-01-27T11:49",112],
["CDISCPILOT01","LB","CDISC004",212,"GLUC","Glucose","CHEMISTRY","88","mg/dL","50","250","4.88488",4.88488,"mmol/L",2.8,13.9,"NORMAL","",10,"WEEK 16","TREATMENT","2014-01-27T11:49",112],
["CDISCPILOT01","LB","CDISC004",215,"K","Potassium","CHEMISTRY","4.4","mEq/L","3.4","5.4","4.4",4.4,"mmol/L",3.4,5.4,"NORMAL","",10,"WEEK 16","TREATMENT","2014-01-27T11:49",112],
["CDISCPILOT01","LB","CDISC004",221,"SODIUM","Sodium","CHEMISTRY","141","mEq/L","135","145","141",141,"mmol/L",135,145,"NORMAL","",10,"WEEK 16","TREATMENT","2014-01-27T11:49",112],
["CDISCPILOT01","LB","CDISC004",222,"PHOS","Phosphate","CHEMISTRY","3.9","mg/dL","2.2","5.1","1.25931",1.25931,"mmol/L",0.71,1.65,"NORMAL","",10,"WEEK 16","TREATMENT","2014-01-27T11:49",112],
["CDISCPILOT01","LB","CDISC004",224,"PROT","Protein","CHEMISTRY","7.4","g/dL","6","8","74",74,"g/L",60,80,"NORMAL","",10,"WEEK 16","TREATMENT","2014-01-27T11:49",112],
["CDISCPILOT01","LB","CDISC004",226,"URATE","Urate","CHEMISTRY","4.7","mg/dL","2.5","7.5","279.556",279.556,"umol/L",149,446,"NORMAL","",10,"WEEK 16","TREATMENT","2014-01-27T11:49",112],
["CDISCPILOT01","LB","CDISC004",228,"ALB","Albumin","CHEMISTRY","4.3","g/dL","3.3","4.9","43",43,"g/L",33,49,"NORMAL","",11,"WEEK 20","TREATMENT","2014-02-25T08:44",141],
["CDISCPILOT01","LB","CDISC004",229,"ALP","Alkaline Phosphatase","CHEMISTRY","56","U/L","35","115","56",56,"U/L",35,115,"NORMAL","",11,"WEEK 20","TREATMENT","2014-02-25T08:44",141],
["CDISCPILOT01","LB","CDISC004",230,"ALT","Alanine Aminotransferase","CHEMISTRY","13","U/L","6","34","13",13,"U/L",6,34,"NORMAL","",11,"WEEK 20","TREATMENT","2014-02-25T08:44",141],
["CDISCPILOT01","LB","CDISC004",231,"AST","Aspartate Aminotransferase","CHEMISTRY","22","U/L","9","34","22",22,"U/L",9,34,"NORMAL","",11,"WEEK 20","TREATMENT","2014-02-25T08:44",141],
["CDISCPILOT01","LB","CDISC004",233,"BILI","Bilirubin","CHEMISTRY","0.4","mg/dL","0.2","1.2","6.84",6.84,"umol/L",3,21,"NORMAL","",11,"WEEK 20","TREATMENT","2014-02-25T08:44",141],
["CDISCPILOT01","LB","CDISC004",234,"UREAN","Urea Nitrogen","CHEMISTRY","11","mg/dL","4","24","3.927",3.927,"mmol/L",1.4,8.6,"NORMAL","",11,"WEEK 20","TREATMENT","2014-02-25T08:44",141],
["CDISCPILOT01","LB","CDISC004",235,"CA","Calcium","CHEMISTRY","9.5","mg/dL","8.4","10.3","2.37025",2.37025,"mmol/L",2.1,2.57,"NORMAL","",11,"WEEK 20","TREATMENT","2014-02-25T08:44",141],
["CDISCPILOT01","LB","CDISC004",236,"CHOL","Cholesterol","CHEMISTRY","208","mg/dL","156","300","5.37888",5.37888,"mmol/L",4.03,7.76,"NORMAL","",11,"WEEK 20","TREATMENT","2014-02-25T08:44",141],
["CDISCPILOT01","LB","CDISC004",237,"CK","Creatine Kinase","CHEMISTRY","155","U/L","21","169","155",155,"U/L",21,169,"NORMAL","",11,"WEEK 20","TREATMENT","2014-02-25T08:44",141],
["CDISCPILOT01","LB","CDISC004",238,"CL","Chloride","CHEMISTRY","105","mEq/L","94","112","105",105,"mmol/L",94,112,"NORMAL","",11,"WEEK 20","TREATMENT","2014-02-25T08:44",141],
["CDISCPILOT01","LB","CDISC004",239,"CREAT","Creatinine","CHEMISTRY","1.0","mg/dL","0.7","1.4","88.4",88.4,"umol/L",62,124,"NORMAL","",11,"WEEK 20","TREATMENT","2014-02-25T08:44",141],
["CDISCPILOT01","LB","CDISC004",241,"GGT","Gamma Glutamyl Transferase","CHEMISTRY","8","U/L","5","50","8",8,"U/L",5,50,"NORMAL","",11,"WEEK 20","TREATMENT","2014-02-25T08:44",141],
["CDISCPILOT01","LB","CDISC004",242,"GLUC","Glucose","CHEMISTRY","97","mg/dL","50","250","5.38447",5.38447,"mmol/L",2.8,13.9,"NORMAL","",11,"WEEK 20","TREATMENT","2014-02-25T08:44",141],
["CDISCPILOT01","LB","CDISC004",245,"K","Potassium","CHEMISTRY","4.8","mEq/L","3.4","5.4","4.8",4.8,"mmol/L",3.4,5.4,"NORMAL","",11,"WEEK 20","TREATMENT","2014-02-25T08:44",141],
["CDISCPILOT01","LB","CDISC004",251,"SODIUM","Sodium","CHEMISTRY","144","mEq/L","135","145","144",144,"mmol/L",135,145,"NORMAL","",11,"WEEK 20","TREATMENT","2014-02-25T08:44",141],
["CDISCPILOT01","LB","CDISC004",252,"PHOS","Phosphate","CHEMISTRY","3.8","mg/dL","2.2","5.1","1.22702",1.22702,"mmol/L",0.71,1.65,"NORMAL","",11,"WEEK 20","TREATMENT","2014-02-25T08:44",141],
["CDISCPILOT01","LB","CDISC004",254,"PROT","Protein","CHEMISTRY","7.3","g/dL","6","8","73",73,"g/L",60,80,"NORMAL","",11,"WEEK 20","TREATMENT","2014-02-25T08:44",141],
["CDISCPILOT01","LB","CDISC004",256,"URATE","Urate","CHEMISTRY","4.7","mg/dL","2.5","7.5","279.556",279.556,"umol/L",149,446,"NORMAL","",11,"WEEK 20","TREATMENT","2014-02-25T08:44",141],
["CDISCPILOT01","LB","CDISC004",258,"ALB","Albumin","CHEMISTRY","4.5","g/dL","3.3","4.9","45",45,"g/L",33,49,"NORMAL","",12,"WEEK 24","TREATMENT","2014-03-18T14:12",162],
["CDISCPILOT01","LB","CDISC004",259,"ALP","Alkaline Phosphatase","CHEMISTRY","58","U/L","35","115","58",58,"U/L",35,115,"NORMAL","",12,"WEEK 24","TREATMENT","2014-03-18T14:12",162],
["CDISCPILOT01","LB","CDISC004",260,"ALT","Alanine Aminotransferase","CHEMISTRY","25","U/L","6","34","25",25,"U/L",6,34,"NORMAL","",12,"WEEK 24","TREATMENT","2014-03-18T14:12",162],
["CDISCPILOT01","LB","CDISC004",261,"AST","Aspartate Aminotransferase","CHEMISTRY","46","U/L","9","34","46",46,"U/L",9,34,"HIGH","",12,"WEEK 24","TREATMENT","2014-03-18T14:12",162],
["CDISCPILOT01","LB","CDISC004",263,"BILI","Bilirubin","CHEMISTRY","0.5","mg/dL","0.2","1.2","8.55",8.55,"umol/L",3,21,"NORMAL","",12,"WEEK 24","TREATMENT","2014-03-18T14:12",162],
["CDISCPILOT01","LB","CDISC004",264,"UREAN","Urea Nitrogen","CHEMISTRY","11","mg/dL","4","24","3.927",3.927,"mmol/L",1.4,8.6,"NORMAL","",12,"WEEK 24","TREATMENT","2014-03-18T14:12",162],
["CDISCPILOT01","LB","CDISC004",265,"CA","Calcium","CHEMISTRY","9.4","mg/dL","8.4","10.3","2.3453",2.3453,"mmol/L",2.1,2.57,"NORMAL","",12,"WEEK 24","TREATMENT","2014-03-18T14:12",162],
["CDISCPILOT01","LB","CDISC004",266,"CHOL","Cholesterol","CHEMISTRY","184","mg/dL","156","300","4.75824",4.75824,"mmol/L",4.03,7.76,"NORMAL","",12,"WEEK 24","TREATMENT","2014-03-18T14:12",162],
["CDISCPILOT01","LB","CDISC004",267,"CK","Creatine Kinase","CHEMISTRY","1556","U/L","21","169","1556",1556,"U/L",21,169,"HIGH","",12,"WEEK 24","TREATMENT","2014-03-18T14:12",162],
["CDISCPILOT01","LB","CDISC004",268,"CL","Chloride","CHEMISTRY","103","mEq/L","94","112","103",103,"mmol/L",94,112,"NORMAL","",12,"WEEK 24","TREATMENT","2014-03-18T14:12",162],
["CDISCPILOT01","LB","CDISC004",270,"CREAT","Creatinine","CHEMISTRY","1.0","mg/dL","0.7","1.4","88.4",88.4,"umol/L",62,124,"NORMAL","",12,"WEEK 24","TREATMENT","2014-03-18T14:12",162],
["CDISCPILOT01","LB","CDISC004",272,"GGT","Gamma Glutamyl Transferase","CHEMISTRY","9","U/L","5","50","9",9,"U/L",5,50,"NORMAL","",12,"WEEK 24","TREATMENT","2014-03-18T14:12",162],
["CDISCPILOT01","LB","CDISC004",273,"GLUC","Glucose","CHEMISTRY","87","mg/dL","50","250","4.82937",4.82937,"mmol/L",2.8,13.9,"NORMAL","",12,"WEEK 24","TREATMENT","2014-03-18T14:12",162],
["CDISCPILOT01","LB","CDISC004",276,"K","Potassium","CHEMISTRY","4.9","mEq/L","3.4","5.4","4.9",4.9,"mmol/L",3.4,5.4,"NORMAL","",12,"WEEK 24","TREATMENT","2014-03-18T14:12",162],
["CDISCPILOT01","LB","CDISC004",283,"SODIUM","Sodium","CHEMISTRY","142","mEq/L","135","145","142",142,"mmol/L",135,145,"NORMAL","",12,"WEEK 24","TREATMENT","2014-03-18T14:12",162],
["CDISCPILOT01","LB","CDISC004",285,"PHOS","Phosphate","CHEMISTRY","3.9","mg/dL","2.2","5.1","1.25931",1.25931,"mmol/L",0.71,1.65,"NORMAL","",12,"WEEK 24","TREATMENT","2014-03-18T14:12",162],
["CDISCPILOT01","LB","CDISC004",287,"PROT","Protein","CHEMISTRY","7.4","g/dL","6","8","74",74,"g/L",60,80,"NORMAL","",12,"WEEK 24","TREATMENT","2014-03-18T14:12",162],
["CDISCPILOT01","LB","CDISC004",290,"URATE","Urate","CHEMISTRY","4.7","mg/dL","2.5","7.5","279.556",279.556,"umol/L",149,446,"NORMAL","",12,"WEEK 24","TREATMENT","2014-03-18T14:12",162],
["CDISCPILOT01","LB","CDISC005",1,"ALB","Albumin","CHEMISTRY","3.9","g/dL","3.5","4.6","39",39,"g/L",35,46,"NORMAL","Y",1,"SCREENING 1","SCREENING","2013-01-22T11:43",-13],
["CDISCPILOT01","LB","CDISC005",2,"ALP","Alkaline Phosphatase","CHEMISTRY","66","U/L","35","115","66",66,"U/L",35,115,"NORMAL","Y",1,"SCREENING 1","SCREENING","2013-01-22T11:43",-13],
["CDISCPILOT01","LB","CDISC005",3,"ALT","Alanine Aminotransferase","CHEMISTRY","17","U/L","6","32","17",17,"U/L",6,32,"NORMAL","Y",1,"SCREENING 1","SCREENING","2013-01-22T11:43",-13],
["CDISCPILOT01","LB","CDISC005",4,"AST","Aspartate Aminotransferase","CHEMISTRY","20","U/L","9","34","20",20,"U/L",9,34,"NORMAL","Y",1,"SCREENING 1","SCREENING","2013-01-22T11:43",-13],
["CDISCPILOT01","LB","CDISC005",6,"BILI","Bilirubin","CHEMISTRY","0.5","mg/dL","0.2","1.2","8.55",8.55,"umol/L",3,21,"NORMAL","Y",1,"SCREENING 1","SCREENING","2013-01-22T11:43",-13],
["CDISCPILOT01","LB","CDISC005",7,"UREAN","Urea Nitrogen","CHEMISTRY","8","mg/dL","4","24","2.856",2.856,"mmol/L",1.4,8.6,"NORMAL","Y",1,"SCREENING 1","SCREENING","2013-01-22T11:43",-13],
["CDISCPILOT01","LB","CDISC005",8,"CA","Calcium","CHEMISTRY","8.9","mg/dL","8.4","10.3","2.22055",2.22055,"mmol/L",2.1,2.57,"NORMAL","Y",1,"SCREENING 1","SCREENING","2013-01-22T11:43",-13],
["CDISCPILOT01","LB","CDISC005",9,"CHOL","Cholesterol","CHEMISTRY","213","mg/dL","156","300","5.50818",5.50818,"mmol/L",4.03,7.76,"NORMAL","Y",1,"SCREENING 1","SCREENING","2013-01-22T11:43",-13],
["CDISCPILOT01","LB","CDISC005",10,"CK","Creatine Kinase","CHEMISTRY","96","U/L","21","169","96",96,"U/L",21,169,"NORMAL","Y",1,"SCREENING 1","SCREENING","2013-01-22T11:43",-13],
["CDISCPILOT01","LB","CDISC005",11,"CL","Chloride","CHEMISTRY","107","mEq/L","94","112","107",107,"mmol/L",94,112,"NORMAL","Y",1,"SCREENING 1","SCREENING","2013-01-22T11:43",-13],
["CDISCPILOT01","LB","CDISC005",13,"CREAT","Creatinine","CHEMISTRY","0.9","mg/dL","0.7","1.4","79.56",79.56,"umol/L",62,124,"NORMAL","Y",1,"SCREENING 1","SCREENING","2013-01-22T11:43",-13],
["CDISCPILOT01","LB","CDISC005",15,"GGT","Gamma Glutamyl Transferase","CHEMISTRY","11","U/L","5","50","11",11,"U/L",5,50,"NORMAL","Y",1,"SCREENING 1","SCREENING","2013-01-22T11:43",-13],
["CDISCPILOT01","LB","CDISC005",16,"GLUC","Glucose","CHEMISTRY","95","mg/dL","50","250","5.27345",5.27345,"mmol/L",2.8,13.9,"NORMAL","Y",1,"SCREENING 1","SCREENING","2013-01-22T11:43",-13],
["CDISCPILOT01","LB","CDISC005",19,"K","Potassium","CHEMISTRY","4.3","mEq/L","3.4","5.4","4.3",4.3,"mmol/L",3.4,5.4,"NORMAL","Y",1,"SCREENING 1","SCREENING","2013-01-22T11:43",-13],
["CDISCPILOT01","LB","CDISC005",26,"SODIUM","Sodium","CHEMISTRY","143","mEq/L","135","145","143",143,"mmol/L",135,145,"NORMAL","Y",1,"SCREENING 1","SCREENING","2013-01-22T11:43",-13],
["CDISCPILOT01","LB","CDISC005",28,"PHOS","Phosphate","CHEMISTRY","4.0","mg/dL","2.2","5.1","1.2916",1.2916,"mmol/L",0.71,1.65,"NORMAL","Y",1,"SCREENING 1","SCREENING","2013-01-22T11:43",-13],
["CDISCPILOT01","LB","CDISC005",30,"PROT","Protein","CHEMISTRY","6.8","g/dL","6","8","68",68,"g/L",60,80,"NORMAL","Y",1,"SCREENING 1","SCREENING","2013-01-22T11:43",-13],
["CDISCPILOT01","LB","CDISC005",34,"URATE","Urate","CHEMISTRY","3.3","mg/dL","2.5","7.5","196.284",196.284,"umol/L",149,446,"NORMAL","Y",1,"SCREENING 1","SCREENING","2013-01-22T11:43",-13],
["CDISCPILOT01","LB","CDISC005",38,"ALB","Albumin","CHEMISTRY","3.8","g/dL","3.5","4.6","38",38,"g/L",35,46,"NORMAL","",4,"WEEK 2","TREATMENT","2013-02-19T09:40",16],
["CDISCPILOT01","LB","CDISC005",39,"ALP","Alkaline Phosphatase","CHEMISTRY","66","U/L","35","115","66",66,"U/L",35,115,"NORMAL","",4,"WEEK 2","TREATMENT","2013-02-19T09:40",16],
["CDISCPILOT01","LB","CDISC005",40,"ALT","Alanine Aminotransferase","CHEMISTRY","17","U/L","6","32","17",17,"U/L",6,32,"NORMAL","",4,"WEEK 2","TREATMENT","2013-02-19T09:40",16],
["CDISCPILOT01","LB","CDISC005",41,"AST","Aspartate Aminotransferase","CHEMISTRY","20","U/L","9","34","20",20,"U/L",9,34,"NORMAL","",4,"WEEK 2","TREATMENT","2013-02-19T09:40",16],
["CDISCPILOT01","LB","CDISC005",43,"BILI","Bilirubin","CHEMISTRY","0.5","mg/dL","0.2","1.2","8.55",8.55,"umol/L",3,21,"NORMAL","",4,"WEEK 2","TREATMENT","2013-02-19T09:40",16],
["CDISCPILOT01","LB","CDISC005",44,"UREAN","Urea Nitrogen","CHEMISTRY","12","mg/dL","4","24","4.284",4.284,"mmol/L",1.4,8.6,"NORMAL","",4,"WEEK 2","TREATMENT","2013-02-19T09:40",16],
["CDISCPILOT01","LB","CDISC005",45,"CA","Calcium","CHEMISTRY","9.4","mg/dL","8.4","10.3","2.3453",2.3453,"mmol/L",2.1,2.57,"NORMAL","",4,"WEEK 2","TREATMENT","2013-02-19T09:40",16],
["CDISCPILOT01","LB","CDISC005",46,"CHOL","Cholesterol","CHEMISTRY","203","mg/dL","156","300","5.24958",5.24958,"mmol/L",4.03,7.76,"NORMAL","",4,"WEEK 2","TREATMENT","2013-02-19T09:40",16],
["CDISCPILOT01","LB","CDISC005",47,"CK","Creatine Kinase","CHEMISTRY","75","U/L","21","169","75",75,"U/L",21,169,"NORMAL","",4,"WEEK 2","TREATMENT","2013-02-19T09:40",16],
["CDISCPILOT01","LB","CDISC005",48,"CL","Chloride","CHEMISTRY","106","mEq/L","94","112","106",106,"mmol/L",94,112,"NORMAL","",4,"WEEK 2","TREATMENT","2013-02-19T09:40",16],
["CDISCPILOT01","LB","CDISC005",50,"CREAT","Creatinine","CHEMISTRY","0.9","mg/dL","0.7","1.4","79.56",79.56,"umol/L",62,124,"NORMAL","",4,"WEEK 2","TREATMENT","2013-02-19T09:40",16],
["CDISCPILOT01","LB","CDISC005",52,"GGT","Gamma Glutamyl Transferase","CHEMISTRY","14","U/L","5","50","14",14,"U/L",5,50,"NORMAL","",4,"WEEK 2","TREATMENT","2013-02-19T09:40",16],
["CDISCPILOT01","LB","CDISC005",53,"GLUC","Glucose","CHEMISTRY","87","mg/dL","50","250","4.82937",4.82937,"mmol/L",2.8,13.9,"NORMAL","",4,"WEEK 2","TREATMENT","2013-02-19T09:40",16],
["CDISCPILOT01","LB","CDISC005",56,"K","Potassium","CHEMISTRY","4.8","mEq/L","3.4","5.4","4.8",4.8,"mmol/L",3.4,5.4,"NORMAL","",4,"WEEK 2","TREATMENT","2013-02-19T09:40",16],
["CDISCPILOT01","LB","CDISC005",63,"SODIUM","Sodium","CHEMISTRY","139","mEq/L","135","145","139",139,"mmol/L",135,145,"NORMAL","",4,"WEEK 2","TREATMENT","2013-02-19T09:40",16],
["CDISCPILOT01","LB","CDISC005",65,"PHOS","Phosphate","CHEMISTRY","3.8","mg/dL","2.2","5.1","1.22702",1.22702,"mmol/L",0.71,1.65,"NORMAL","",4,"WEEK 2","TREATMENT","2013-02-19T09:40",16],
["CDISCPILOT01","LB","CDISC005",67,"PROT","Protein","CHEMISTRY","6.6","g/dL","6","8","66",66,"g/L",60,80,"NORMAL","",4,"WEEK 2","TREATMENT","2013-02-19T09:40",16],
["CDISCPILOT01","LB","CDISC005",70,"URATE","Urate","CHEMISTRY","3.5","mg/dL","2.5","7.5","208.18",208.18,"umol/L",149,446,"NORMAL","",4,"WEEK 2","TREATMENT","2013-02-19T09:40",16],
["CDISCPILOT01","LB","CDISC005",73,"ALB","Albumin","CHEMISTRY","4.0","g/dL","3.5","4.6","40",40,"g/L",35,46,"NORMAL","",5,"WEEK 4","TREATMENT","2013-03-12T11:50",37],
["CDISCPILOT01","LB","CDISC005",74,"ALP","Alkaline Phosphatase","CHEMISTRY","61","U/L","35","115","61",61,"U/L",35,115,"NORMAL","",5,"WEEK 4","TREATMENT","2013-03-12T11:50",37],
["CDISCPILOT01","LB","CDISC005",75,"ALT","Alanine Aminotransferase","CHEMISTRY","14","U/L","6","32","14",14,"U/L",6,32,"NORMAL","",5,"WEEK 4","TREATMENT","2013-03-12T11:50",37],
["CDISCPILOT01","LB","CDISC005",76,"AST","Aspartate Aminotransferase","CHEMISTRY","20","U/L","9","34","20",20,"U/L",9,34,"NORMAL","",5,"WEEK 4","TREATMENT","2013-03-12T11:50",37],
["CDISCPILOT01","LB","CDISC005",78,"BILI","Bilirubin","CHEMISTRY","0.4","mg/dL","0.2","1.2","6.84",6.84,"umol/L",3,21,"NORMAL","",5,"WEEK 4","TREATMENT","2013-03-12T11:50",37],
["CDISCPILOT01","LB","CDISC005",79,"UREAN","Urea Nitrogen","CHEMISTRY","9","mg/dL","4","24","3.213",3.213,"mmol/L",1.4,8.6,"NORMAL","",5,"WEEK 4","TREATMENT","2013-03-12T11:50",37],
["CDISCPILOT01","LB","CDISC005",80,"CA","Calcium","CHEMISTRY","9.1","mg/dL","8.4","10.3","2.27045",2.27045,"mmol/L",2.1,2.57,"NORMAL","",5,"WEEK 4","TREATMENT","2013-03-12T11:50",37],
["CDISCPILOT01","LB","CDISC005",81,"CHOL","Cholesterol","CHEMISTRY","177","mg/dL","156","300","4.57722",4.57722,"mmol/L",4.03,7.76,"NORMAL","",5,"WEEK 4","TREATMENT","2013-03-12T11:50",37],
["CDISCPILOT01","LB","CDISC005",82,"CK","Creatine Kinase","CHEMISTRY","119","U/L","21","169","119",119,"U/L",21,169,"NORMAL","",5,"WEEK 4","TREATMENT","2013-03-12T11:50",37],
["CDISCPILOT01","LB","CDISC005",83,"CL","Chloride","CHEMISTRY","105","mEq/L","94","112","105",105,"mmol/L",94,112,"NORMAL","",5,"WEEK 4","TREATMENT","2013-03-12T11:50",37],
["CDISCPILOT01","LB","CDISC005",84,"CREAT","Creatinine","CHEMISTRY","0.9","mg/dL","0.7","1.4","79.56",79.56,"umol/L",62,124,"NORMAL","",5,"WEEK 4","TREATMENT","2013-03-12T11:50",37],
["CDISCPILOT01","LB","CDISC005",86,"GGT","Gamma Glutamyl Transferase","CHEMISTRY","11","U/L","5","50","11",11,"U/L",5,50,"NORMAL","",5,"WEEK 4","TREATMENT","2013-03-12T11:50",37],
["CDISCPILOT01","LB","CDISC005",87,"GLUC","Glucose","CHEMISTRY","87","mg/dL","50","250","4.82937",4.82937,"mmol/L",2.8,13.9,"NORMAL","",5,"WEEK 4","TREATMENT","2013-03-12T11:50",37],
["CDISCPILOT01","LB","CDISC005",90,"K","Potassium","CHEMISTRY","4.4","mEq/L","3.4","5.4","4.4",4.4,"mmol/L",3.4,5.4,"NORMAL","",5,"WEEK 4","TREATMENT","2013-03-12T11:50",37],
["CDISCPILOT01","LB","CDISC005",96,"SODIUM","Sodium","CHEMISTRY","137","mEq/L","135","145","137",137,"mmol/L",135,145,"NORMAL","",5,"WEEK 4","TREATMENT","2013-03-12T11:50",37],
["CDISCPILOT01","LB","CDISC005",97,"PHOS","Phosphate","CHEMISTRY","4.0","mg/dL","2.2","5.1","1.2916",1.2916,"mmol/L",0.71,1.65,"NORMAL","",5,"WEEK 4","TREATMENT","2013-03-12T11:50",37],
["CDISCPILOT01","LB","CDISC005",99,"PROT","Protein","CHEMISTRY","6.5","g/dL","6","8","65",65,"g/L",60,80,"NORMAL","",5,"WEEK 4","TREATMENT","2013-03-12T11:50",37],
["CDISCPILOT01","LB","CDISC005",101,"URATE","Urate","CHEMISTRY","3.2","mg/dL","2.5","7.5","190.336",190.336,"umol/L",149,446,"NORMAL","",5,"WEEK 4","TREATMENT","2013-03-12T11:50",37],
["CDISCPILOT01","LB","CDISC005",103,"ALB","Albumin","CHEMISTRY","3.9","g/dL","3.5","4.6","39",39,"g/L",35,46,"NORMAL","",7,"WEEK 6","TREATMENT","2013-03-19T08:57",44],
["CDISCPILOT01","LB","CDISC005",104,"ALP","Alkaline Phosphatase","CHEMISTRY","63","U/L","35","115","63",63,"U/L",35,115,"NORMAL","",7,"WEEK 6","TREATMENT","2013-03-19T08:57",44],
["CDISCPILOT01","LB","CDISC005",105,"ALT","Alanine Aminotransferase","CHEMISTRY","17","U/L","6","32","17",17,"U/L",6,32,"NORMAL","",7,"WEEK 6","TREATMENT","2013-03-19T08:57",44],
["CDISCPILOT01","LB","CDISC005",106,"AST","Aspartate Aminotransferase","CHEMISTRY","23","U/L","9","34","23",23,"U/L",9,34,"NORMAL","",7,"WEEK 6","TREATMENT","2013-03-19T08:57",44],
["CDISCPILOT01","LB","CDISC005",108,"BILI","Bilirubin","CHEMISTRY","0.5","mg/dL","0.2","1.2","8.55",8.55,"umol/L",3,21,"NORMAL","",7,"WEEK 6","TREATMENT","2013-03-19T08:57",44],
["CDISCPILOT01","LB","CDISC005",109,"UREAN","Urea Nitrogen","CHEMISTRY","9","mg/dL","4","24","3.213",3.213,"mmol/L",1.4,8.6,"NORMAL","",7,"WEEK 6","TREATMENT","2013-03-19T08:57",44],
["CDISCPILOT01","LB","CDISC005",110,"CA","Calcium","CHEMISTRY","9.4","mg/dL","8.4","10.3","2.3453",2.3453,"mmol/L",2.1,2.57,"NORMAL","",7,"WEEK 6","TREATMENT","2013-03-19T08:57",44],
["CDISCPILOT01","LB","CDISC005",111,"CHOL","Cholesterol","CHEMISTRY","183","mg/dL","156","300","4.73238",4.73238,"mmol/L",4.03,7.76,"NORMAL","",7,"WEEK 6","TREATMENT","2013-03-19T08:57",44],
["CDISCPILOT01","LB","CDISC005",112,"CK","Creatine Kinase","CHEMISTRY","95","U/L","21","169","95",95,"U/L",21,169,"NORMAL","",7,"WEEK 6","TREATMENT","2013-03-19T08:57",44],
["CDISCPILOT01","LB","CDISC005",113,"CL","Chloride","CHEMISTRY","106","mEq/L","94","112","106",106,"mmol/L",94,112,"NORMAL","",7,"WEEK 6","TREATMENT","2013-03-19T08:57",44],
["CDISCPILOT01","LB","CDISC005",114,"CREAT","Creatinine","CHEMISTRY","0.9","mg/dL","0.7","1.4","79.56",79.56,"umol/L",62,124,"NORMAL","",7,"WEEK 6","TREATMENT","2013-03-19T08:57",44],
["CDISCPILOT01","LB","CDISC005",116,"GGT","Gamma Glutamyl Transferase","CHEMISTRY","11","U/L","5","50","11",11,"U/L",5,50,"NORMAL","",7,"WEEK 6","TREATMENT","2013-03-19T08:57",44],
["CDISCPILOT01","LB","CDISC005",117,"GLUC","Glucose","CHEMISTRY","86","mg/dL","50","250","4.77386",4.77386,"mmol/L",2.8,13.9,"NORMAL","",7,"WEEK 6","TREATMENT","2013-03-19T08:57",44],
["CDISCPILOT01","LB","CDISC005",120,"K","Potassium","CHEMISTRY","4.5","mEq/L","3.4","5.4","4.5",4.5,"mmol/L",3.4,5.4,"NORMAL","",7,"WEEK 6","TREATMENT","2013-03-19T08:57",44],
["CDISCPILOT01","LB","CDISC005",126,"SODIUM","Sodium","CHEMISTRY","137","mEq/L","135","145","137",137,"mmol/L",135,145,"NORMAL","",7,"WEEK 6","TREATMENT","2013-03-19T08:57",44],
["CDISCPILOT01","LB","CDISC005",127,"PHOS","Phosphate","CHEMISTRY","4.0","mg/dL","2.2","5.1","1.2916",1.2916,"mmol/L",0.71,1.65,"NORMAL","",7,"WEEK 6","TREATMENT","2013-03-19T08:57",44],
["CDISCPILOT01","LB","CDISC005",129,"PROT","Protein","CHEMISTRY","6.8","g/dL","6","8","68",68,"g/L",60,80,"NORMAL","",7,"WEEK 6","TREATMENT","2013-03-19T08:57",44],
["CDISCPILOT01","LB","CDISC005",131,"URATE","Urate","CHEMISTRY","3.5","mg/dL","2.5","7.5","208.18",208.18,"umol/L",149,446,"NORMAL","",7,"WEEK 6","TREATMENT","2013-03-19T08:57",44],
["CDISCPILOT01","LB","CDISC005",133,"ALB","Albumin","CHEMISTRY","4.0","g/dL","3.5","4.6","40",40,"g/L",35,46,"NORMAL","",8,"WEEK 8","TREATMENT","2013-04-02T10:32",58],
["CDISCPILOT01","LB","CDISC005",134,"ALP","Alkaline Phosphatase","CHEMISTRY","56","U/L","35","115","56",56,"U/L",35,115,"NORMAL","",8,"WEEK 8","TREATMENT","2013-04-02T10:32",58],
["CDISCPILOT01","LB","CDISC005",135,"ALT","Alanine Aminotransferase","CHEMISTRY","18","U/L","6","32","18",18,"U/L",6,32,"NORMAL","",8,"WEEK 8","TREATMENT","2013-04-02T10:32",58],
["CDISCPILOT01","LB","CDISC005",136,"AST","Aspartate Aminotransferase","CHEMISTRY","25","U/L","9","34","25",25,"U/L",9,34,"NORMAL","",8,"WEEK 8","TREATMENT","2013-04-02T10:32",58],
["CDISCPILOT01","LB","CDISC005",138,"BILI","Bilirubin","CHEMISTRY","0.3","mg/dL","0.2","1.2","5.13",5.13,"umol/L",3,21,"NORMAL","",8,"WEEK 8","TREATMENT","2013-04-02T10:32",58],
["CDISCPILOT01","LB","CDISC005",139,"UREAN","Urea Nitrogen","CHEMISTRY","10","mg/dL","4","24","3.57",3.57,"mmol/L",1.4,8.6,"NORMAL","",8,"WEEK 8","TREATMENT","2013-04-02T10:32",58],
["CDISCPILOT01","LB","CDISC005",140,"CA","Calcium","CHEMISTRY","9.1","mg/dL","8.4","10.3","2.27045",2.27045,"mmol/L",2.1,2.57,"NORMAL","",8,"WEEK 8","TREATMENT","2013-04-02T10:32",58],
["CDISCPILOT01","LB","CDISC005",141,"CHOL","Cholesterol","CHEMISTRY","177","mg/dL","156","300","4.57722",4.57722,"mmol/L",4.03,7.76,"NORMAL","",8,"WEEK 8","TREATMENT","2013-04-02T10:32",58],
["CDISCPILOT01","LB","CDISC005",142,"CK","Creatine Kinase","CHEMISTRY","142","U/L","21","169","142",142,"U/L",21,169,"NORMAL","",8,"WEEK 8","TREATMENT","2013-04-02T10:32",58],
["CDISCPILOT01","LB","CDISC005",143,"CL","Chloride","CHEMISTRY","105","mEq/L","94","112","105",105,"mmol/L",94,112,"NORMAL","",8,"WEEK 8","TREATMENT","2013-04-02T10:32",58],
["CDISCPILOT01","LB","CDISC005",144,"CREAT","Creatinine","CHEMISTRY","0.9","mg/dL","0.7","1.4","79.56",79.56,"umol/L",62,124,"NORMAL","",8,"WEEK 8","TREATMENT","2013-04-02T10:32",58],
["CDISCPILOT01","LB","CDISC005",146,"GGT","Gamma Glutamyl Transferase","CHEMISTRY","11","U/L","5","50","11",11,"U/L",5,50,"NORMAL","",8,"WEEK 8","TREATMENT","2013-04-02T10:32",58],
["CDISCPILOT01","LB","CDISC005",147,"GLUC","Glucose","CHEMISTRY","83","mg/dL","50","250","4.60733",4.60733,"mmol/L",2.8,13.9,"NORMAL","",8,"WEEK 8","TREATMENT","2013-04-02T10:32",58],
["CDISCPILOT01","LB","CDISC005",150,"K","Potassium","CHEMISTRY","3.5","mEq/L","3.4","5.4","3.5",3.5,"mmol/L",3.4,5.4,"NORMAL","",8,"WEEK 8","TREATMENT","2013-04-02T10:32",58],
["CDISCPILOT01","LB","CDISC005",156,"SODIUM","Sodium","CHEMISTRY","139","mEq/L","135","145","139",139,"mmol/L",135,145,"NORMAL","",8,"WEEK 8","TREATMENT","2013-04-02T10:32",58],
["CDISCPILOT01","LB","CDISC005",157,"PHOS","Phosphate","CHEMISTRY","3.6","mg/dL","2.2","5.1","1.16244",1.16244,"mmol/L",0.71,1.65,"NORMAL","",8,"WEEK 8","TREATMENT","2013-04-02T10:32",58],
["CDISCPILOT01","LB","CDISC005",159,"PROT","Protein","CHEMISTRY","6.8","g/dL","6","8","68",68,"g/L",60,80,"NORMAL","",8,"WEEK 8","TREATMENT","2013-04-02T10:32",58],
["CDISCPILOT01","LB","CDISC005",161,"URATE","Urate","CHEMISTRY","3.4","mg/dL","2.5","7.5","202.232",202.232,"umol/L",149,446,"NORMAL","",8,"WEEK 8","TREATMENT","2013-04-02T10:32",58],
["CDISCPILOT01","LB","CDISC005",163,"ALB","Albumin","CHEMISTRY","3.9","g/dL","3.5","4.6","39",39,"g/L",35,46,"NORMAL","",9,"WEEK 12","TREATMENT","2013-04-30T13:14",86],
["CDISCPILOT01","LB","CDISC005",164,"ALP","Alkaline Phosphatase","CHEMISTRY","57","U/L","35","115","57",57,"U/L",35,115,"NORMAL","",9,"WEEK 12","TREATMENT","2013-04-30T13:14",86],
["CDISCPILOT01","LB","CDISC005",165,"ALT","Alanine Aminotransferase","CHEMISTRY","13","U/L","6","32","13",13,"U/L",6,32,"NORMAL","",9,"WEEK 12","TREATMENT","2013-04-30T13:14",86],
["CDISCPILOT01","LB","CDISC005",166,"AST","Aspartate Aminotransferase","CHEMISTRY","20","U/L","9","34","20",20,"U/L",9,34,"NORMAL","",9,"WEEK 12","TREATMENT","2013-04-30T13:14",86],
["CDISCPILOT01","LB","CDISC005",168,"BILI","Bilirubin","CHEMISTRY","0.6","mg/dL","0.2","1.2","10.26",10.26,"umol/L",3,21,"NORMAL","",9,"WEEK 12","TREATMENT","2013-04-30T13:14",86],
["CDISCPILOT01","LB","CDISC005",169,"UREAN","Urea Nitrogen","CHEMISTRY","13","mg/dL","4","24","4.641",4.641,"mmol/L",1.4,8.6,"NORMAL","",9,"WEEK 12","TREATMENT","2013-04-30T13:14",86],
["CDISCPILOT01","LB","CDISC005",170,"CA","Calcium","CHEMISTRY","9.0","mg/dL","8.4","10.3","2.2455",2.2455,"mmol/L",2.1,2.57,"NORMAL","",9,"WEEK 12","TREATMENT","2013-04-30T13:14",86],
["CDISCPILOT01","LB","CDISC005",171,"CHOL","Cholesterol","CHEMISTRY","190","mg/dL","156","300","4.9134",4.9134,"mmol/L",4.03,7.76,"NORMAL","",9,"WEEK 12","TREATMENT","2013-04-30T13:14",86],
["CDISCPILOT01","LB","CDISC005",172,"CK","Creatine Kinase","CHEMISTRY","85","U/L","21","169","85",85,"U/L",21,169,"NORMAL","",9,"WEEK 12","TREATMENT","2013-04-30T13:14",86],
["CDISCPILOT01","LB","CDISC005",173,"CL","Chloride","CHEMISTRY","110","mEq/L","94","112","110",110,"mmol/L",94,112,"NORMAL","",9,"WEEK 12","TREATMENT","2013-04-30T13:14",86],
["CDISCPILOT01","LB","CDISC005",175,"CREAT","Creatinine","CHEMISTRY","1.0","mg/dL","0.7","1.4","88.4",88.4,"umol/L",62,124,"NORMAL","",9,"WEEK 12","TREATMENT","2013-04-30T13:14",86],
["CDISCPILOT01","LB","CDISC005",177,"GGT","Gamma Glutamyl Transferase","CHEMISTRY","11","U/L","5","50","11",11,"U/L",5,50,"NORMAL","",9,"WEEK 12","TREATMENT","2013-04-30T13:14",86],
["CDISCPILOT01","LB","CDISC005",178,"GLUC","Glucose","CHEMISTRY","94","mg/dL","50","250","5.21794",5.21794,"mmol/L",2.8,13.9,"NORMAL","",9,"WEEK 12","TREATMENT","2013-04-30T13:14",86],
["CDISCPILOT01","LB","CDISC005",181,"K","Potassium","CHEMISTRY","4.6","mEq/L","3.4","5.4","4.6",4.6,"mmol/L",3.4,5.4,"NORMAL","",9,"WEEK 12","TREATMENT","2013-04-30T13:14",86],
["CDISCPILOT01","LB","CDISC005",188,"SODIUM","Sodium","CHEMISTRY","139","mEq/L","135","145","139",139,"mmol/L",135,145,"NORMAL","",9,"WEEK 12","TREATMENT","2013-04-30T13:14",86],
["CDISCPILOT01","LB","CDISC005",190,"PHOS","Phosphate","CHEMISTRY","4.5","mg/dL","2.2","5.1","1.45305",1.45305,"mmol/L",0.71,1.65,"NORMAL","",9,"WEEK 12","TREATMENT","2013-04-30T13:14",86],
["CDISCPILOT01","LB","CDISC005",192,"PROT","Protein","CHEMISTRY","6.5","g/dL","6","8","65",65,"g/L",60,80,"NORMAL","",9,"WEEK 12","TREATMENT","2013-04-30T13:14",86],
["CDISCPILOT01","LB","CDISC005",195,"URATE","Urate","CHEMISTRY","3.6","mg/dL","2.5","7.5","214.128",214.128,"umol/L",149,446,"NORMAL","",9,"WEEK 12","TREATMENT","2013-04-30T13:14",86],
["CDISCPILOT01","LB","CDISC005",198,"ALB","Albumin","CHEMISTRY","4.0","g/dL","3.5","4.6","40",40,"g/L",35,46,"NORMAL","",10,"WEEK 16","TREATMENT","2013-05-30T10:33",116],
["CDISCPILOT01","LB","CDISC005",199,"ALP","Alkaline Phosphatase","CHEMISTRY","60","U/L","35","115","60",60,"U/L",35,115,"NORMAL","",10,"WEEK 16","TREATMENT","2013-05-30T10:33",116],
["CDISCPILOT01","LB","CDISC005",200,"ALT","Alanine Aminotransferase","CHEMISTRY","19","U/L","6","32","19",19,"U/L",6,32,"NORMAL","",10,"WEEK 16","TREATMENT","2013-05-30T10:33",116],
["CDISCPILOT01","LB","CDISC005",201,"AST","Aspartate Aminotransferase","CHEMISTRY","25","U/L","9","34","25",25,"U/L",9,34,"NORMAL","",10,"WEEK 16","TREATMENT","2013-05-30T10:33",116],
["CDISCPILOT01","LB","CDISC005",203,"BILI","Bilirubin","CHEMISTRY","0.5","mg/dL","0.2","1.2","8.55",8.55,"umol/L",3,21,"NORMAL","",10,"WEEK 16","TREATMENT","2013-05-30T10:33",116],
["CDISCPILOT01","LB","CDISC005",204,"UREAN","Urea Nitrogen","CHEMISTRY","10","mg/dL","4","24","3.57",3.57,"mmol/L",1.4,8.6,"NORMAL","",10,"WEEK 16","TREATMENT","2013-05-30T10:33",116],
["CDISCPILOT01","LB","CDISC005",205,"CA","Calcium","CHEMISTRY","9.6","mg/dL","8.4","10.3","2.3952",2.3952,"mmol/L",2.1,2.57,"NORMAL","",10,"WEEK 16","TREATMENT","2013-05-30T10:33",116],
["CDISCPILOT01","LB","CDISC005",206,"CHOL","Cholesterol","CHEMISTRY","186","mg/dL","156","300","4.80996",4.80996,"mmol/L",4.03,7.76,"NORMAL","",10,"WEEK 16","TREATMENT","2013-05-30T10:33",116],
["CDISCPILOT01","LB","CDISC005",207,"CK","Creatine Kinase","CHEMISTRY","99","U/L","21","169","99",99,"U/L",21,169,"NORMAL","",10,"WEEK 16","TREATMENT","2013-05-30T10:33",116],
["CDISCPILOT01","LB","CDISC005",208,"CL","Chloride","CHEMISTRY","105","mEq/L","94","112","105",105,"mmol/L",94,112,"NORMAL","",10,"WEEK 16","TREATMENT","2013-05-30T10:33",116],
["CDISCPILOT01","LB","CDISC005",209,"CREAT","Creatinine","CHEMISTRY","0.9","mg/dL","0.7","1.4","79.56",79.56,"umol/L",62,124,"NORMAL","",10,"WEEK 16","TREATMENT","2013-05-30T10:33",116],
["CDISCPILOT01","LB","CDISC005",211,"GGT","Gamma Glutamyl Transferase","CHEMISTRY","13","U/L","5","50","13",13,"U/L",5,50,"NORMAL","",10,"WEEK 16","TREATMENT","2013-05-30T10:33",116],
["CDISCPILOT01","LB","CDISC005",212,"GLUC","Glucose","CHEMISTRY","92","mg/dL","50","250","5.10692",5.10692,"mmol/L",2.8,13.9,"NORMAL","",10,"WEEK 16","TREATMENT","2013-05-30T10:33",116],
["CDISCPILOT01","LB","CDISC005",215,"K","Potassium","CHEMISTRY","4.2","mEq/L","3.4","5.4","4.2",4.2,"mmol/L",3.4,5.4,"NORMAL","",10,"WEEK 16","TREATMENT","2013-05-30T10:33",116],
["CDISCPILOT01","LB","CDISC005",221,"SODIUM","Sodium","CHEMISTRY","138","mEq/L","135","145","138",138,"mmol/L",135,145,"NORMAL","",10,"WEEK 16","TREATMENT","2013-05-30T10:33",116],
["CDISCPILOT01","LB","CDISC005",222,"PHOS","Phosphate","CHEMISTRY","3.9","mg/dL","2.2","5.1","1.25931",1.25931,"mmol/L",0.71,1.65,"NORMAL","",10,"WEEK 16","TREATMENT","2013-05-30T10:33",116],
["CDISCPILOT01","LB","CDISC005",224,"PROT","Protein","CHEMISTRY","7.0","g/dL","6","8","70",70,"g/L",60,80,"NORMAL","",10,"WEEK 16","TREATMENT","2013-05-30T10:33",116],
["CDISCPILOT01","LB","CDISC005",226,"URATE","Urate","CHEMISTRY","3.0","mg/dL","2.5","7.5","178.44",178.44,"umol/L",149,446,"NORMAL","",10,"WEEK 16","TREATMENT","2013-05-30T10:33",116],
["CDISCPILOT01","LB","CDISC005",228,"ALB","Albumin","CHEMISTRY","4.2","g/dL","3.5","4.6","42",42,"g/L",35,46,"NORMAL","",11,"WEEK 20","TREATMENT","2013-06-25T15:07",142],
["CDISCPILOT01","LB","CDISC005",229,"ALP","Alkaline Phosphatase","CHEMISTRY","64","U/L","35","115","64",64,"U/L",35,115,"NORMAL","",11,"WEEK 20","TREATMENT","2013-06-25T15:07",142],
["CDISCPILOT01","LB","CDISC005",230,"ALT","Alanine Aminotransferase","CHEMISTRY","19","U/L","6","32","19",19,"U/L",6,32,"NORMAL","",11,"WEEK 20","TREATMENT","2013-06-25T15:07",142],
["CDISCPILOT01","LB","CDISC005",231,"AST","Aspartate Aminotransferase","CHEMISTRY","21","U/L","9","34","21",21,"U/L",9,34,"NORMAL","",11,"WEEK 20","TREATMENT","2013-06-25T15:07",142],
["CDISCPILOT01","LB","CDISC005",233,"BILI","Bilirubin","CHEMISTRY","0.4","mg/dL","0.2","1.2","6.84",6.84,"umol/L",3,21,"NORMAL","",11,"WEEK 20","TREATMENT","2013-06-25T15:07",142],
["CDISCPILOT01","LB","CDISC005",234,"UREAN","Urea Nitrogen","CHEMISTRY","12","mg/dL","4","24","4.284",4.284,"mmol/L",1.4,8.6,"NORMAL","",11,"WEEK 20","TREATMENT","2013-06-25T15:07",142],
["CDISCPILOT01","LB","CDISC005",235,"CA","Calcium","CHEMISTRY","8.8","mg/dL","8.4","10.3","2.1956",2.1956,"mmol/L",2.1,2.57,"NORMAL","",11,"WEEK 20","TREATMENT","2013-06-25T15:07",142],
["CDISCPILOT01","LB","CDISC005",236,"CHOL","Cholesterol","CHEMISTRY","202","mg/dL","156","300","5.22372",5.22372,"mmol/L",4.03,7.76,"NORMAL","",11,"WEEK 20","TREATMENT","2013-06-25T15:07",142],
["CDISCPILOT01","LB","CDISC005",237,"CK","Creatine Kinase","CHEMISTRY","128","U/L","21","169","128",128,"U/L",21,169,"NORMAL","",11,"WEEK 20","TREATMENT","2013-06-25T15:07",142],
["CDISCPILOT01","LB","CDISC005",238,"CL","Chloride","CHEMISTRY","108","mEq/L","94","112","108",108,"mmol/L",94,112,"NORMAL","",11,"WEEK 20","TREATMENT","2013-06-25T15:07",142],
["CDISCPILOT01","LB","CDISC005",239,"CREAT","Creatinine","CHEMISTRY","1.0","mg/dL","0.7","1.4","88.4",88.4,"umol/L",62,124,"NORMAL","",11,"WEEK 20","TREATMENT","2013-06-25T15:07",142],
["CDISCPILOT01","LB","CDISC005",241,"GGT","Gamma Glutamyl Transferase","CHEMISTRY","12","U/L","5","50","12",12,"U/L",5,50,"NORMAL","",11,"WEEK 20","TREATMENT","2013-06-25T15:07",142],
["CDISCPILOT01","LB","CDISC005",242,"GLUC","Glucose","CHEMISTRY","88","mg/dL","50","250","4.88488",4.88488,"mmol/L",2.8,13.9,"NORMAL","",11,"WEEK 20","TREATMENT","2013-06-25T15:07",142],
["CDISCPILOT01","LB","CDISC005",245,"K","Potassium","CHEMISTRY","4.5","mEq/L","3.4","5.4","4.5",4.5,"mmol/L",3.4,5.4,"NORMAL","",11,"WEEK 20","TREATMENT","2013-06-25T15:07",142],
["CDISCPILOT01","LB","CDISC005",251,"SODIUM","Sodium","CHEMISTRY","143","mEq/L","135","145","143",143,"mmol/L",135,145,"NORMAL","",11,"WEEK 20","TREATMENT","2013-06-25T15:07",142],
["CDISCPILOT01","LB","CDISC005",252,"PHOS","Phosphate","CHEMISTRY","4.1","mg/dL","2.2","5.1","1.32389",1.32389,"mmol/L",0.71,1.65,"NORMAL","",11,"WEEK 20","TREATMENT","2013-06-25T15:07",142],
["CDISCPILOT01","LB","CDISC005",254,"PROT","Protein","CHEMISTRY","7.0","g/dL","6","8","70",70,"g/L",60,80,"NORMAL","",11,"WEEK 20","TREATMENT","2013-06-25T15:07",142],
["CDISCPILOT01","LB","CDISC005",256,"URATE","Urate","CHEMISTRY","3.5","mg/dL","2.5","7.5","208.18",208.18,"umol/L",149,446,"NORMAL","",11,"WEEK 20","TREATMENT","2013-06-25T15:07",142],
["CDISCPILOT01","LB","CDISC005",258,"ALB","Albumin","CHEMISTRY","4.1","g/dL","3.5","4.6","41",41,"g/L",35,46,"NORMAL","",12,"WEEK 24","TREATMENT","2013-07-30T12:32",177],
["CDISCPILOT01","LB","CDISC005",259,"ALP","Alkaline Phosphatase","CHEMISTRY","58","U/L","35","115","58",58,"U/L",35,115,"NORMAL","",12,"WEEK 24","TREATMENT","2013-07-30T12:32",177],
["CDISCPILOT01","LB","CDISC005",260,"ALT","Alanine Aminotransferase","CHEMISTRY","15","U/L","6","32","15",15,"U/L",6,32,"NORMAL","",12,"WEEK 24","TREATMENT","2013-07-30T12:32",177],
["CDISCPILOT01","LB","CDISC005",261,"AST","Aspartate Aminotransferase","CHEMISTRY","20","U/L","9","34","20",20,"U/L",9,34,"NORMAL","",12,"WEEK 24","TREATMENT","2013-07-30T12:32",177],
["CDISCPILOT01","LB","CDISC005",263,"BILI","Bilirubin","CHEMISTRY","0.5","mg/dL","0.2","1.2","8.55",8.55,"umol/L",3,21,"NORMAL","",12,"WEEK 24","TREATMENT","2013-07-30T12:32",177],
["CDISCPILOT01","LB","CDISC005",264,"UREAN","Urea Nitrogen","CHEMISTRY","8","mg/dL","4","24","2.856",2.856,"mmol/L",1.4,8.6,"NORMAL","",12,"WEEK 24","TREATMENT","2013-07-30T12:32",177],
["CDISCPILOT01","LB","CDISC005",265,"CA","Calcium","CHEMISTRY","9.6","mg/dL","8.4","10.3","2.3952",2.3952,"mmol/L",2.1,2.57,"NORMAL","",12,"WEEK 24","TREATMENT","2013-07-30T12:32",177],
["CDISCPILOT01","LB","CDISC005",266,"CHOL","Cholesterol","CHEMISTRY","185","mg/dL","156","300","4.7841",4.7841,"mmol/L",4.03,7.76,"NORMAL","",12,"WEEK 24","TREATMENT","2013-07-30T12:32",177],
["CDISCPILOT01","LB","CDISC005",267,"CK","Creatine Kinase","CHEMISTRY","113","U/L","21","169","113",113,"U/L",21,169,"NORMAL","",12,"WEEK 24","TREATMENT","2013-07-30T12:32",177],
["CDISCPILOT01","LB","CDISC005",268,"CL","Chloride","CHEMISTRY","105","mEq/L","94","112","105",105,"mmol/L",94,112,"NORMAL","",12,"WEEK 24","TREATMENT","2013-07-30T12:32",177],
["CDISCPILOT01","LB","CDISC005",270,"CREAT","Creatinine","CHEMISTRY","1.0","mg/dL","0.7","1.4","88.4",88.4,"umol/L",62,124,"NORMAL","",12,"WEEK 24","TREATMENT","2013-07-30T12:32",177],
["CDISCPILOT01","LB","CDISC005",272,"GGT","Gamma Glutamyl Transferase","CHEMISTRY","11","U/L","5","50","11",11,"U/L",5,50,"NORMAL","",12,"WEEK 24","TREATMENT","2013-07-30T12:32",177],
["CDISCPILOT01","LB","CDISC005",273,"GLUC","Glucose","CHEMISTRY","88","mg/dL","50","250","4.88488",4.88488,"mmol/L",2.8,13.9,"NORMAL","",12,"WEEK 24","TREATMENT","2013-07-30T12:32",177],
["CDISCPILOT01","LB","CDISC005",276,"K","Potassium","CHEMISTRY","4.4","mEq/L","3.4","5.4","4.4",4.4,"mmol/L",3.4,5.4,"NORMAL","",12,"WEEK 24","TREATMENT","2013-07-30T12:32",177],
["CDISCPILOT01","LB","CDISC005",283,"SODIUM","Sodium","CHEMISTRY","139","mEq/L","135","145","139",139,"mmol/L",135,145,"NORMAL","",12,"WEEK 24","TREATMENT","2013-07-30T12:32",177],
["CDISCPILOT01","LB","CDISC005",285,"PHOS","Phosphate","CHEMISTRY","3.9","mg/dL","2.2","5.1","1.25931",1.25931,"mmol/L",0.71,1.65,"NORMAL","",12,"WEEK 24","TREATMENT","2013-07-30T12:32",177],
["CDISCPILOT01","LB","CDISC005",287,"PROT","Protein","CHEMISTRY","7.0","g/dL","6","8","70",70,"g/L",60,80,"NORMAL","",12,"WEEK 24","TREATMENT","2013-07-30T12:32",177],
["CDISCPILOT01","LB","CDISC005",290,"URATE","Urate","CHEMISTRY","3.2","mg/dL","2.5","7.5","190.336",190.336,"umol/L",149,446,"NORMAL","",12,"WEEK 24","TREATMENT","2013-07-30T12:32",177],
["CDISCPILOT01","LB","CDISC005",293,"ALB","Albumin","CHEMISTRY","3.8","g/dL","3.5","4.6","38",38,"g/L",35,46,"NORMAL","",13,"WEEK 26","TREATMENT","2013-08-06T12:00",184],
["CDISCPILOT01","LB","CDISC005",294,"ALP","Alkaline Phosphatase","CHEMISTRY","53","U/L","35","115","53",53,"U/L",35,115,"NORMAL","",13,"WEEK 26","TREATMENT","2013-08-06T12:00",184],
["CDISCPILOT01","LB","CDISC005",295,"ALT","Alanine Aminotransferase","CHEMISTRY","14","U/L","6","32","14",14,"U/L",6,32,"NORMAL","",13,"WEEK 26","TREATMENT","2013-08-06T12:00",184],
["CDISCPILOT01","LB","CDISC005",296,"AST","Aspartate Aminotransferase","CHEMISTRY","17","U/L","9","34","17",17,"U/L",9,34,"NORMAL","",13,"WEEK 26","TREATMENT","2013-08-06T12:00",184],
["CDISCPILOT01","LB","CDISC005",298,"BILI","Bilirubin","CHEMISTRY","0.5","mg/dL","0.2","1.2","8.55",8.55,"umol/L",3,21,"NORMAL","",13,"WEEK 26","TREATMENT","2013-08-06T12:00",184],
["CDISCPILOT01","LB","CDISC005",299,"UREAN","Urea Nitrogen","CHEMISTRY","10","mg/dL","4","24","3.57",3.57,"mmol/L",1.4,8.6,"NORMAL","",13,"WEEK 26","TREATMENT","2013-08-06T12:00",184],
["CDISCPILOT01","LB","CDISC005",300,"CA","Calcium","CHEMISTRY","9.0","mg/dL","8.4","10.3","2.2455",2.2455,"mmol/L",2.1,2.57,"NORMAL","",13,"WEEK 26","TREATMENT","2013-08-06T12:00",184],
["CDISCPILOT01","LB","CDISC005",301,"CHOL","Cholesterol","CHEMISTRY","188","mg/dL","156","300","4.86168",4.86168,"mmol/L",4.03,7.76,"NORMAL","",13,"WEEK 26","TREATMENT","2013-08-06T12:00",184],
["CDISCPILOT01","LB","CDISC005",302,"CK","Creatine Kinase","CHEMISTRY","98","U/L","21","169","98",98,"U/L",21,169,"NORMAL","",13,"WEEK 26","TREATMENT","2013-08-06T12:00",184],
["CDISCPILOT01","LB","CDISC005",303,"CL","Chloride","CHEMISTRY","107","mEq/L","94","112","107",107,"mmol/L",94,112,"NORMAL","",13,"WEEK 26","TREATMENT","2013-08-06T12:00",184],
["CDISCPILOT01","LB","CDISC005",304,"CREAT","Creatinine","CHEMISTRY","0.9","mg/dL","0.7","1.4","79.56",79.56,"umol/L",62,124,"NORMAL","",13,"WEEK 26","TREATMENT","2013-08-06T12:00",184],
["CDISCPILOT01","LB","CDISC005",306,"GGT","Gamma Glutamyl Transferase","CHEMISTRY","13","U/L","5","50","13",13,"U/L",5,50,"NORMAL","",13,"WEEK 26","TREATMENT","2013-08-06T12:00",184],
["CDISCPILOT01","LB","CDISC005",307,"GLUC","Glucose","CHEMISTRY","95","mg/dL","50","250","5.27345",5.27345,"mmol/L",2.8,13.9,"NORMAL","",13,"WEEK 26","TREATMENT","2013-08-06T12:00",184],
["CDISCPILOT01","LB","CDISC005",310,"K","Potassium","CHEMISTRY","4.1","mEq/L","3.4","5.4","4.1",4.1,"mmol/L",3.4,5.4,"NORMAL","",13,"WEEK 26","TREATMENT","2013-08-06T12:00",184],
["CDISCPILOT01","LB","CDISC005",316,"SODIUM","Sodium","CHEMISTRY","143","mEq/L","135","145","143",143,"mmol/L",135,145,"NORMAL","",13,"WEEK 26","TREATMENT","2013-08-06T12:00",184],
["CDISCPILOT01","LB","CDISC005",317,"PHOS","Phosphate","CHEMISTRY","3.9","mg/dL","2.2","5.1","1.25931",1.25931,"mmol/L",0.71,1.65,"NORMAL","",13,"WEEK 26","TREATMENT","2013-08-06T12:00",184],
["CDISCPILOT01","LB","CDISC005",319,"PROT","Protein","CHEMISTRY","6.5","g/dL","6","8","65",65,"g/L",60,80,"NORMAL","",13,"WEEK 26","TREATMENT","2013-08-06T12:00",184],
["CDISCPILOT01","LB","CDISC005",321,"URATE","Urate","CHEMISTRY","3.3","mg/dL","2.5","7.5","196.284",196.284,"umol/L",149,446,"NORMAL","",13,"WEEK 26","TREATMENT","2013-08-06T12:00",184],
["CDISCPILOT01","LB","CDISC006",1,"ALB","Albumin","CHEMISTRY","4.0","g/dL","3.5","4.6","40",40,"g/L",35,46,"NORMAL","Y",1,"SCREENING 1","SCREENING","2013-02-21T16:20",-26],
["CDISCPILOT01","LB","CDISC006",2,"ALP","Alkaline Phosphatase","CHEMISTRY","80","U/L","35","115","80",80,"U/L",35,115,"NORMAL","Y",1,"SCREENING 1","SCREENING","2013-02-21T16:20",-26],
["CDISCPILOT01","LB","CDISC006",3,"ALT","Alanine Aminotransferase","CHEMISTRY","28","U/L","6","32","28",28,"U/L",6,32,"NORMAL","Y",1,"SCREENING 1","SCREENING","2013-02-21T16:20",-26],
["CDISCPILOT01","LB","CDISC006",4,"AST","Aspartate Aminotransferase","CHEMISTRY","26","U/L","9","34","26",26,"U/L",9,34,"NORMAL","Y",1,"SCREENING 1","SCREENING","2013-02-21T16:20",-26],
["CDISCPILOT01","LB","CDISC006",6,"BILI","Bilirubin","CHEMISTRY","0.5","mg/dL","0.2","1.2","8.55",8.55,"umol/L",3,21,"NORMAL","Y",1,"SCREENING 1","SCREENING","2013-02-21T16:20",-26],
["CDISCPILOT01","LB","CDISC006",7,"UREAN","Urea Nitrogen","CHEMISTRY","22","mg/dL","4","24","7.854",7.854,"mmol/L",1.4,8.6,"NORMAL","Y",1,"SCREENING 1","SCREENING","2013-02-21T16:20",-26],
["CDISCPILOT01","LB","CDISC006",8,"CA","Calcium","CHEMISTRY","9.4","mg/dL","8.4","10.3","2.3453",2.3453,"mmol/L",2.1,2.57,"NORMAL","Y",1,"SCREENING 1","SCREENING","2013-02-21T16:20",-26],
["CDISCPILOT01","LB","CDISC006",9,"CHOL","Cholesterol","CHEMISTRY","208","mg/dL","156","300","5.37888",5.37888,"mmol/L",4.03,7.76,"NORMAL","Y",1,"SCREENING 1","SCREENING","2013-02-21T16:20",-26],
["CDISCPILOT01","LB","CDISC006",10,"CK","Creatine Kinase","CHEMISTRY","223","U/L","21","169","223",223,"U/L",21,169,"HIGH","Y",1,"SCREENING 1","SCREENING","2013-02-21T16:20",-26],
["CDISCPILOT01","LB","CDISC006",11,"CL","Chloride","CHEMISTRY","106","mEq/L","94","112","106",106,"mmol/L",94,112,"NORMAL","Y",1,"SCREENING 1","SCREENING","2013-02-21T16:20",-26],
["CDISCPILOT01","LB","CDISC006",13,"CREAT","Creatinine","CHEMISTRY","0.8","mg/dL","0.7","1.4","70.72",70.72,"umol/L",62,124,"NORMAL","Y",1,"SCREENING 1","SCREENING","2013-02-21T16:20",-26],
["CDISCPILOT01","LB","CDISC006",15,"GGT","Gamma Glutamyl Transferase","CHEMISTRY","16","U/L","5","50","16",16,"U/L",5,50,"NORMAL","Y",1,"SCREENING 1","SCREENING","2013-02-21T16:20",-26],
["CDISCPILOT01","LB","CDISC006",16,"GLUC","Glucose","CHEMISTRY","107","mg/dL","50","250","5.93957",5.93957,"mmol/L",2.8,13.9,"NORMAL","Y",1,"SCREENING 1","SCREENING","2013-02-21T16:20",-26],
["CDISCPILOT01","LB","CDISC006",19,"K","Potassium","CHEMISTRY","3.9","mEq/L","3.4","5.4","3.9",3.9,"mmol/L",3.4,5.4,"NORMAL","Y",1,"SCREENING 1","SCREENING","2013-02-21T16:20",-26],
["CDISCPILOT01","LB","CDISC006",26,"SODIUM","Sodium","CHEMISTRY","138","mEq/L","135","145","138",138,"mmol/L",135,145,"NORMAL","Y",1,"SCREENING 1","SCREENING","2013-02-21T16:20",-26],
["CDISCPILOT01","LB","CDISC006",28,"PHOS","Phosphate","CHEMISTRY","4.2","mg/dL","2.2","5.1","1.35618",1.35618,"mmol/L",0.71,1.65,"NORMAL","Y",1,"SCREENING 1","SCREENING","2013-02-21T16:20",-26],
["CDISCPILOT01","LB","CDISC006",30,"PROT","Protein","CHEMISTRY","7.7","g/dL","6","8","77",77,"g/L",60,80,"NORMAL","Y",1,"SCREENING 1","SCREENING","2013-02-21T16:20",-26],
["CDISCPILOT01","LB","CDISC006",34,"URATE","Urate","CHEMISTRY","2.5","mg/dL","2.5","7.5","148.7",148.7,"umol/L",149,446,"NORMAL","Y",1,"SCREENING 1","SCREENING","2013-02-21T16:20",-26],
["CDISCPILOT01","LB","CDISC006",38,"ALB","Albumin","CHEMISTRY","4.1","g/dL","3.5","4.6","41",41,"g/L",35,46,"NORMAL","",4,"WEEK 2","TREATMENT","2013-04-02T12:41",15],
["CDISCPILOT01","LB","CDISC006",39,"ALP","Alkaline Phosphatase","CHEMISTRY","70","U/L","35","115","70",70,"U/L",35,115,"NORMAL","",4,"WEEK 2","TREATMENT","2013-04-02T12:41",15],
["CDISCPILOT01","LB","CDISC006",40,"ALT","Alanine Aminotransferase","CHEMISTRY","20","U/L","6","32","20",20,"U/L",6,32,"NORMAL","",4,"WEEK 2","TREATMENT","2013-04-02T12:41",15],
["CDISCPILOT01","LB","CDISC006",41,"AST","Aspartate Aminotransferase","CHEMISTRY","31","U/L","9","34","31",31,"U/L",9,34,"NORMAL","",4,"WEEK 2","TREATMENT","2013-04-02T12:41",15],
["CDISCPILOT01","LB","CDISC006",43,"BILI","Bilirubin","CHEMISTRY","0.8","mg/dL","0.2","1.2","13.68",13.68,"umol/L",3,21,"NORMAL","",4,"WEEK 2","TREATMENT","2013-04-02T12:41",15],
["CDISCPILOT01","LB","CDISC006",44,"UREAN","Urea Nitrogen","CHEMISTRY","21","mg/dL","4","24","7.497",7.497,"mmol/L",1.4,8.6,"NORMAL","",4,"WEEK 2","TREATMENT","2013-04-02T12:41",15],
["CDISCPILOT01","LB","CDISC006",45,"CA","Calcium","CHEMISTRY","9.4","mg/dL","8.4","10.3","2.3453",2.3453,"mmol/L",2.1,2.57,"NORMAL","",4,"WEEK 2","TREATMENT","2013-04-02T12:41",15],
["CDISCPILOT01","LB","CDISC006",46,"CHOL","Cholesterol","CHEMISTRY","225","mg/dL","156","300","5.8185",5.8185,"mmol/L",4.03,7.76,"NORMAL","",4,"WEEK 2","TREATMENT","2013-04-02T12:41",15],
["CDISCPILOT01","LB","CDISC006",47,"CK","Creatine Kinase","CHEMISTRY","344","U/L","21","169","344",344,"U/L",21,169,"HIGH","",4,"WEEK 2","TREATMENT","2013-04-02T12:41",15],
["CDISCPILOT01","LB","CDISC006",48,"CL","Chloride","CHEMISTRY","105","mEq/L","94","112","105",105,"mmol/L",94,112,"NORMAL","",4,"WEEK 2","TREATMENT","2013-04-02T12:41",15],
["CDISCPILOT01","LB","CDISC006",50,"CREAT","Creatinine","CHEMISTRY","1.0","mg/dL","0.7","1.4","88.4",88.4,"umol/L",62,124,"NORMAL","",4,"WEEK 2","TREATMENT","2013-04-02T12:41",15],
["CDISCPILOT01","LB","CDISC006",52,"GGT","Gamma Glutamyl Transferase","CHEMISTRY","15","U/L","5","50","15",15,"U/L",5,50,"NORMAL","",4,"WEEK 2","TREATMENT","2013-04-02T12:41",15],
["CDISCPILOT01","LB","CDISC006",53,"GLUC","Glucose","CHEMISTRY","106","mg/dL","50","250","5.88406",5.88406,"mmol/L",2.8,13.9,"NORMAL","",4,"WEEK 2","TREATMENT","2013-04-02T12:41",15],
["CDISCPILOT01","LB","CDISC006",56,"K","Potassium","CHEMISTRY","4.3","mEq/L","3.4","5.4","4.3",4.3,"mmol/L",3.4,5.4,"NORMAL","",4,"WEEK 2","TREATMENT","2013-04-02T12:41",15],
["CDISCPILOT01","LB","CDISC006",63,"SODIUM","Sodium","CHEMISTRY","141","mEq/L","135","145","141",141,"mmol/L",135,145,"NORMAL","",4,"WEEK 2","TREATMENT","2013-04-02T12:41",15],
["CDISCPILOT01","LB","CDISC006",65,"PHOS","Phosphate","CHEMISTRY","3.8","mg/dL","2.2","5.1","1.22702",1.22702,"mmol/L",0.71,1.65,"NORMAL","",4,"WEEK 2","TREATMENT","2013-04-02T12:41",15],
["CDISCPILOT01","LB","CDISC006",67,"PROT","Protein","CHEMISTRY","7.8","g/dL","6","8","78",78,"g/L",60,80,"NORMAL","",4,"WEEK 2","TREATMENT","2013-04-02T12:41",15],
["CDISCPILOT01","LB","CDISC006",70,"URATE","Urate","CHEMISTRY","3.1","mg/dL","2.5","7.5","184.388",184.388,"umol/L",149,446,"NORMAL","",4,"WEEK 2","TREATMENT","2013-04-02T12:41",15],
["CDISCPILOT01","LB","CDISC006",73,"ALB","Albumin","CHEMISTRY","3.8","g/dL","3.5","4.6","38",38,"g/L",35,46,"NORMAL","",5,"WEEK 4","TREATMENT","2013-04-16T13:10",29],
["CDISCPILOT01","LB","CDISC006",74,"ALP","Alkaline Phosphatase","CHEMISTRY","65","U/L","35","115","65",65,"U/L",35,115,"NORMAL","",5,"WEEK 4","TREATMENT","2013-04-16T13:10",29],
["CDISCPILOT01","LB","CDISC006",75,"ALT","Alanine Aminotransferase","CHEMISTRY","16","U/L","6","32","16",16,"U/L",6,32,"NORMAL","",5,"WEEK 4","TREATMENT","2013-04-16T13:10",29],
["CDISCPILOT01","LB","CDISC006",76,"AST","Aspartate Aminotransferase","CHEMISTRY","23","U/L","9","34","23",23,"U/L",9,34,"NORMAL","",5,"WEEK 4","TREATMENT","2013-04-16T13:10",29],
["CDISCPILOT01","LB","CDISC006",78,"BILI","Bilirubin","CHEMISTRY","0.7","mg/dL","0.2","1.2","11.97",11.97,"umol/L",3,21,"NORMAL","",5,"WEEK 4","TREATMENT","2013-04-16T13:10",29],
["CDISCPILOT01","LB","CDISC006",79,"UREAN","Urea Nitrogen","CHEMISTRY","18","mg/dL","4","24","6.426",6.426,"mmol/L",1.4,8.6,"NORMAL","",5,"WEEK 4","TREATMENT","2013-04-16T13:10",29],
["CDISCPILOT01","LB","CDISC006",80,"CA","Calcium","CHEMISTRY","9.0","mg/dL","8.4","10.3","2.2455",2.2455,"mmol/L",2.1,2.57,"NORMAL","",5,"WEEK 4","TREATMENT","2013-04-16T13:10",29],
["CDISCPILOT01","LB","CDISC006",81,"CHOL","Cholesterol","CHEMISTRY","206","mg/dL","156","300","5.32716",5.32716,"mmol/L",4.03,7.76,"NORMAL","",5,"WEEK 4","TREATMENT","2013-04-16T13:10",29],
["CDISCPILOT01","LB","CDISC006",82,"CK","Creatine Kinase","CHEMISTRY","282","U/L","21","169","282",282,"U/L",21,169,"HIGH","",5,"WEEK 4","TREATMENT","2013-04-16T13:10",29],
["CDISCPILOT01","LB","CDISC006",83,"CL","Chloride","CHEMISTRY","104","mEq/L","94","112","104",104,"mmol/L",94,112,"NORMAL","",5,"WEEK 4","TREATMENT","2013-04-16T13:10",29],
["CDISCPILOT01","LB","CDISC006",84,"CREAT","Creatinine","CHEMISTRY","0.9","mg/dL","0.7","1.4","79.56",79.56,"umol/L",62,124,"NORMAL","",5,"WEEK 4","TREATMENT","2013-04-16T13:10",29],
["CDISCPILOT01","LB","CDISC006",86,"GGT","Gamma Glutamyl Transferase","CHEMISTRY","12","U/L","5","50","12",12,"U/L",5,50,"NORMAL","",5,"WEEK 4","TREATMENT","2013-04-16T13:10",29],
["CDISCPILOT01","LB","CDISC006",87,"GLUC","Glucose","CHEMISTRY","99","mg/dL","50","250","5.49549",5.49549,"mmol/L",2.8,13.9,"NORMAL","",5,"WEEK 4","TREATMENT","2013-04-16T13:10",29],
["CDISCPILOT01","LB","CDISC006",90,"K","Potassium","CHEMISTRY","3.9","mEq/L","3.4","5.4","3.9",3.9,"mmol/L",3.4,5.4,"NORMAL","",5,"WEEK 4","TREATMENT","2013-04-16T13:10",29],
["CDISCPILOT01","LB","CDISC006",96,"SODIUM","Sodium","CHEMISTRY","140","mEq/L","135","145","140",140,"mmol/L",135,145,"NORMAL","",5,"WEEK 4","TREATMENT","2013-04-16T13:10",29],
["CDISCPILOT01","LB","CDISC006",97,"PHOS","Phosphate","CHEMISTRY","4.2","mg/dL","2.2","5.1","1.35618",1.35618,"mmol/L",0.71,1.65,"NORMAL","",5,"WEEK 4","TREATMENT","2013-04-16T13:10",29],
["CDISCPILOT01","LB","CDISC006",99,"PROT","Protein","CHEMISTRY","7.5","g/dL","6","8","75",75,"g/L",60,80,"NORMAL","",5,"WEEK 4","TREATMENT","2013-04-16T13:10",29],
["CDISCPILOT01","LB","CDISC006",101,"URATE","Urate","CHEMISTRY","3.0","mg/dL","2.5","7.5","178.44",178.44,"umol/L",149,446,"NORMAL","",5,"WEEK 4","TREATMENT","2013-04-16T13:10",29],
["CDISCPILOT01","LB","CDISC006",103,"ALB","Albumin","CHEMISTRY","4.3","g/dL","3.5","4.6","43",43,"g/L",35,46,"NORMAL","",7,"WEEK 6","TREATMENT","2013-04-30T12:22",43],
["CDISCPILOT01","LB","CDISC006",104,"ALP","Alkaline Phosphatase","CHEMISTRY","68","U/L","35","115","68",68,"U/L",35,115,"NORMAL","",7,"WEEK 6","TREATMENT","2013-04-30T12:22",43],
["CDISCPILOT01","LB","CDISC006",105,"ALT","Alanine Aminotransferase","CHEMISTRY","18","U/L","6","32","18",18,"U/L",6,32,"NORMAL","",7,"WEEK 6","TREATMENT","2013-04-30T12:22",43],
["CDISCPILOT01","LB","CDISC006",106,"AST","Aspartate Aminotransferase","CHEMISTRY","22","U/L","9","34","22",22,"U/L",9,34,"NORMAL","",7,"WEEK 6","TREATMENT","2013-04-30T12:22",43],
["CDISCPILOT01","LB","CDISC006",108,"BILI","Bilirubin","CHEMISTRY","0.5","mg/dL","0.2","1.2","8.55",8.55,"umol/L",3,21,"NORMAL","",7,"WEEK 6","TREATMENT","2013-04-30T12:22",43],
["CDISCPILOT01","LB","CDISC006",109,"UREAN","Urea Nitrogen","CHEMISTRY","26","mg/dL","4","24","9.282",9.282,"mmol/L",1.4,8.6,"HIGH","",7,"WEEK 6","TREATMENT","2013-04-30T12:22",43],
["CDISCPILOT01","LB","CDISC006",110,"CA","Calcium","CHEMISTRY","9.2","mg/dL","8.4","10.3","2.2954",2.2954,"mmol/L",2.1,2.57,"NORMAL","",7,"WEEK 6","TREATMENT","2013-04-30T12:22",43],
["CDISCPILOT01","LB","CDISC006",111,"CHOL","Cholesterol","CHEMISTRY","211","mg/dL","156","300","5.45646",5.45646,"mmol/L",4.03,7.76,"NORMAL","",7,"WEEK 6","TREATMENT","2013-04-30T12:22",43],
["CDISCPILOT01","LB","CDISC006",112,"CK","Creatine Kinase","CHEMISTRY","289","U/L","21","169","289",289,"U/L",21,169,"HIGH","",7,"WEEK 6","TREATMENT","2013-04-30T12:22",43],
["CDISCPILOT01","LB","CDISC006",113,"CL","Chloride","CHEMISTRY","104","mEq/L","94","112","104",104,"mmol/L",94,112,"NORMAL","",7,"WEEK 6","TREATMENT","2013-04-30T12:22",43],
["CDISCPILOT01","LB","CDISC006",115,"CREAT","Creatinine","CHEMISTRY","0.9","mg/dL","0.7","1.4","79.56",79.56,"umol/L",62,124,"NORMAL","",7,"WEEK 6","TREATMENT","2013-04-30T12:22",43],
["CDISCPILOT01","LB","CDISC006",117,"GGT","Gamma Glutamyl Transferase","CHEMISTRY","13","U/L","5","50","13",13,"U/L",5,50,"NORMAL","",7,"WEEK 6","TREATMENT","2013-04-30T12:22",43],
["CDISCPILOT01","LB","CDISC006",118,"GLUC","Glucose","CHEMISTRY","99","mg/dL","50","250","5.49549",5.49549,"mmol/L",2.8,13.9,"NORMAL","",7,"WEEK 6","TREATMENT","2013-04-30T12:22",43],
["CDISCPILOT01","LB","CDISC006",121,"K","Potassium","CHEMISTRY","4.1","mEq/L","3.4","5.4","4.1",4.1,"mmol/L",3.4,5.4,"NORMAL","",7,"WEEK 6","TREATMENT","2013-04-30T12:22",43],
["CDISCPILOT01","LB","CDISC006",128,"SODIUM","Sodium","CHEMISTRY","142","mEq/L","135","145","142",142,"mmol/L",135,145,"NORMAL","",7,"WEEK 6","TREATMENT","2013-04-30T12:22",43],
["CDISCPILOT01","LB","CDISC006",130,"PHOS","Phosphate","CHEMISTRY","3.9","mg/dL","2.2","5.1","1.25931",1.25931,"mmol/L",0.71,1.65,"NORMAL","",7,"WEEK 6","TREATMENT","2013-04-30T12:22",43],
["CDISCPILOT01","LB","CDISC006",132,"PROT","Protein","CHEMISTRY","8.3","g/dL","6","8","83",83,"g/L",60,80,"HIGH","",7,"WEEK 6","TREATMENT","2013-04-30T12:22",43],
["CDISCPILOT01","LB","CDISC006",135,"URATE","Urate","CHEMISTRY","2.8","mg/dL","2.5","7.5","166.544",166.544,"umol/L",149,446,"NORMAL","",7,"WEEK 6","TREATMENT","2013-04-30T12:22",43],
["CDISCPILOT01","LB","CDISC007",1,"ALB","Albumin","CHEMISTRY","3.9","g/dL","3.3","4.9","39",39,"g/L",33,49,"NORMAL","Y",1,"SCREENING 1","SCREENING","2012-12-31T11:05",-5],
["CDISCPILOT01","LB","CDISC007",2,"ALP","Alkaline Phosphatase","CHEMISTRY","102","U/L","35","115","102",102,"U/L",35,115,"NORMAL","Y",1,"SCREENING 1","SCREENING","2012-12-31T11:05",-5],
["CDISCPILOT01","LB","CDISC007",3,"ALT","Alanine Aminotransferase","CHEMISTRY","19","U/L","6","43","19",19,"U/L",6,43,"NORMAL","Y",1,"SCREENING 1","SCREENING","2012-12-31T11:05",-5],
["CDISCPILOT01","LB","CDISC007",4,"AST","Aspartate Aminotransferase","CHEMISTRY","19","U/L","11","36","19",19,"U/L",11,36,"NORMAL","Y",1,"SCREENING 1","SCREENING","2012-12-31T11:05",-5],
["CDISCPILOT01","LB","CDISC007",6,"BILI","Bilirubin","CHEMISTRY","0.8","mg/dL","0.2","1.2","13.68",13.68,"umol/L",3,21,"NORMAL","Y",1,"SCREENING 1","SCREENING","2012-12-31T11:05",-5],
["CDISCPILOT01","LB","CDISC007",7,"UREAN","Urea Nitrogen","CHEMISTRY","16","mg/dL","4","24","5.712",5.712,"mmol/L",1.4,8.6,"NORMAL","Y",1,"SCREENING 1","SCREENING","2012-12-31T11:05",-5],
["CDISCPILOT01","LB","CDISC007",8,"CA","Calcium","CHEMISTRY","8.9","mg/dL","8.4","10.3","2.22055",2.22055,"mmol/L",2.1,2.57,"NORMAL","Y",1,"SCREENING 1","SCREENING","2012-12-31T11:05",-5],
["CDISCPILOT01","LB","CDISC007",9,"CHOL","Cholesterol","CHEMISTRY","217","mg/dL","149","286","5.61162",5.61162,"mmol/L",3.85,7.4,"NORMAL","Y",1,"SCREENING 1","SCREENING","2012-12-31T11:05",-5],
["CDISCPILOT01","LB","CDISC007",10,"CK","Creatine Kinase","CHEMISTRY","127","U/L","22","198","127",127,"U/L",22,198,"NORMAL","Y",1,"SCREENING 1","SCREENING","2012-12-31T11:05",-5],
["CDISCPILOT01","LB","CDISC007",11,"CL","Chloride","CHEMISTRY","112","mEq/L","94","112","112",112,"mmol/L",94,112,"NORMAL","Y",1,"SCREENING 1","SCREENING","2012-12-31T11:05",-5],
["CDISCPILOT01","LB","CDISC007",13,"CREAT","Creatinine","CHEMISTRY","1.1","mg/dL","0.8","1.6","97.24",97.24,"umol/L",71,141,"NORMAL","Y",1,"SCREENING 1","SCREENING","2012-12-31T11:05",-5],
["CDISCPILOT01","LB","CDISC007",15,"GGT","Gamma Glutamyl Transferase","CHEMISTRY","28","U/L","10","50","28",28,"U/L",10,50,"NORMAL","Y",1,"SCREENING 1","SCREENING","2012-12-31T11:05",-5],
["CDISCPILOT01","LB","CDISC007",16,"GLUC","Glucose","CHEMISTRY","105","mg/dL","50","250","5.82855",5.82855,"mmol/L",2.8,13.9,"NORMAL","Y",1,"SCREENING 1","SCREENING","2012-12-31T11:05",-5],
["CDISCPILOT01","LB","CDISC007",19,"K","Potassium","CHEMISTRY","4.3","mEq/L","3.4","5.4","4.3",4.3,"mmol/L",3.4,5.4,"NORMAL","Y",1,"SCREENING 1","SCREENING","2012-12-31T11:05",-5],
["CDISCPILOT01","LB","CDISC007",26,"SODIUM","Sodium","CHEMISTRY","140","mEq/L","135","145","140",140,"mmol/L",135,145,"NORMAL","Y",1,"SCREENING 1","SCREENING","2012-12-31T11:05",-5],
["CDISCPILOT01","LB","CDISC007",28,"PHOS","Phosphate","CHEMISTRY","3.5","mg/dL","2.2","5.1","1.13015",1.13015,"mmol/L",0.71,1.65,"NORMAL","Y",1,"SCREENING 1","SCREENING","2012-12-31T11:05",-5],
["CDISCPILOT01","LB","CDISC007",30,"PROT","Protein","CHEMISTRY","7.5","g/dL","6","8","75",75,"g/L",60,80,"NORMAL","Y",1,"SCREENING 1","SCREENING","2012-12-31T11:05",-5],
["CDISCPILOT01","LB","CDISC007",34,"URATE","Urate","CHEMISTRY","5.4","mg/dL","2.5","7.5","321.192",321.192,"umol/L",149,446,"NORMAL","Y",1,"SCREENING 1","SCREENING","2012-12-31T11:05",-5],
["CDISCPILOT01","LB","CDISC007",38,"ALB","Albumin","CHEMISTRY","3.6","g/dL","3.3","4.9","36",36,"g/L",33,49,"NORMAL","",4,"WEEK 2","TREATMENT","2013-01-18T14:19",14],
["CDISCPILOT01","LB","CDISC007",39,"ALP","Alkaline Phosphatase","CHEMISTRY","95","U/L","35","115","95",95,"U/L",35,115,"NORMAL","",4,"WEEK 2","TREATMENT","2013-01-18T14:19",14],
["CDISCPILOT01","LB","CDISC007",40,"ALT","Alanine Aminotransferase","CHEMISTRY","18","U/L","6","43","18",18,"U/L",6,43,"NORMAL","",4,"WEEK 2","TREATMENT","2013-01-18T14:19",14],
["CDISCPILOT01","LB","CDISC007",41,"AST","Aspartate Aminotransferase","CHEMISTRY","18","U/L","11","36","18",18,"U/L",11,36,"NORMAL","",4,"WEEK 2","TREATMENT","2013-01-18T14:19",14],
["CDISCPILOT01","LB","CDISC007",43,"BILI","Bilirubin","CHEMISTRY","0.8","mg/dL","0.2","1.2","13.68",13.68,"umol/L",3,21,"NORMAL","",4,"WEEK 2","TREATMENT","2013-01-18T14:19",14],
["CDISCPILOT01","LB","CDISC007",44,"UREAN","Urea Nitrogen","CHEMISTRY","18","mg/dL","4","24","6.426",6.426,"mmol/L",1.4,8.6,"NORMAL","",4,"WEEK 2","TREATMENT","2013-01-18T14:19",14],
["CDISCPILOT01","LB","CDISC007",45,"CA","Calcium","CHEMISTRY","8.7","mg/dL","8.4","10.3","2.17065",2.17065,"mmol/L",2.1,2.57,"NORMAL","",4,"WEEK 2","TREATMENT","2013-01-18T14:19",14],
["CDISCPILOT01","LB","CDISC007",46,"CHOL","Cholesterol","CHEMISTRY","207","mg/dL","149","286","5.35302",5.35302,"mmol/L",3.85,7.4,"NORMAL","",4,"WEEK 2","TREATMENT","2013-01-18T14:19",14],
["CDISCPILOT01","LB","CDISC007",47,"CK","Creatine Kinase","CHEMISTRY","73","U/L","22","198","73",73,"U/L",22,198,"NORMAL","",4,"WEEK 2","TREATMENT","2013-01-18T14:19",14],
["CDISCPILOT01","LB","CDISC007",48,"CL","Chloride","CHEMISTRY","108","mEq/L","94","112","108",108,"mmol/L",94,112,"NORMAL","",4,"WEEK 2","TREATMENT","2013-01-18T14:19",14],
["CDISCPILOT01","LB","CDISC007",50,"CREAT","Creatinine","CHEMISTRY","1.0","mg/dL","0.8","1.6","88.4",88.4,"umol/L",71,141,"NORMAL","",4,"WEEK 2","TREATMENT","2013-01-18T14:19",14],
["CDISCPILOT01","LB","CDISC007",52,"GGT","Gamma Glutamyl Transferase","CHEMISTRY","23","U/L","10","50","23",23,"U/L",10,50,"NORMAL","",4,"WEEK 2","TREATMENT","2013-01-18T14:19",14],
["CDISCPILOT01","LB","CDISC007",53,"GLUC","Glucose","CHEMISTRY","100","mg/dL","50","250","5.551",5.551,"mmol/L",2.8,13.9,"NORMAL","",4,"WEEK 2","TREATMENT","2013-01-18T14:19",14],
["CDISCPILOT01","LB","CDISC007",56,"K","Potassium","CHEMISTRY","4.2","mEq/L","3.4","5.4","4.2",4.2,"mmol/L",3.4,5.4,"NORMAL","",4,"WEEK 2","TREATMENT","2013-01-18T14:19",14],
["CDISCPILOT01","LB","CDISC007",63,"SODIUM","Sodium","CHEMISTRY","139","mEq/L","135","145","139",139,"mmol/L",135,145,"NORMAL","",4,"WEEK 2","TREATMENT","2013-01-18T14:19",14],
["CDISCPILOT01","LB","CDISC007",65,"PHOS","Phosphate","CHEMISTRY","3.7","mg/dL","2.2","5.1","1.19473",1.19473,"mmol/L",0.71,1.65,"NORMAL","",4,"WEEK 2","TREATMENT","2013-01-18T14:19",14],
["CDISCPILOT01","LB","CDISC007",67,"PROT","Protein","CHEMISTRY","6.6","g/dL","6","8","66",66,"g/L",60,80,"NORMAL","",4,"WEEK 2","TREATMENT","2013-01-18T14:19",14],
["CDISCPILOT01","LB","CDISC007",70,"URATE","Urate","CHEMISTRY","5.3","mg/dL","2.5","7.5","315.244",315.244,"umol/L",149,446,"NORMAL","",4,"WEEK 2","TREATMENT","2013-01-18T14:19",14],
["CDISCPILOT01","LB","CDISC007",73,"ALB","Albumin","CHEMISTRY","3.7","g/dL","3.3","4.9","37",37,"g/L",33,49,"NORMAL","",5,"WEEK 4","TREATMENT","2013-01-31T12:36",27],
["CDISCPILOT01","LB","CDISC007",74,"ALP","Alkaline Phosphatase","CHEMISTRY","100","U/L","35","115","100",100,"U/L",35,115,"NORMAL","",5,"WEEK 4","TREATMENT","2013-01-31T12:36",27],
["CDISCPILOT01","LB","CDISC007",75,"ALT","Alanine Aminotransferase","CHEMISTRY","17","U/L","6","43","17",17,"U/L",6,43,"NORMAL","",5,"WEEK 4","TREATMENT","2013-01-31T12:36",27],
["CDISCPILOT01","LB","CDISC007",76,"AST","Aspartate Aminotransferase","CHEMISTRY","18","U/L","11","36","18",18,"U/L",11,36,"NORMAL","",5,"WEEK 4","TREATMENT","2013-01-31T12:36",27],
["CDISCPILOT01","LB","CDISC007",78,"BILI","Bilirubin","CHEMISTRY","0.8","mg/dL","0.2","1.2","13.68",13.68,"umol/L",3,21,"NORMAL","",5,"WEEK 4","TREATMENT","2013-01-31T12:36",27],
["CDISCPILOT01","LB","CDISC007",79,"UREAN","Urea Nitrogen","CHEMISTRY","14","mg/dL","4","24","4.998",4.998,"mmol/L",1.4,8.6,"NORMAL","",5,"WEEK 4","TREATMENT","2013-01-31T12:36",27],
["CDISCPILOT01","LB","CDISC007",80,"CA","Calcium","CHEMISTRY","9.1","mg/dL","8.4","10.3","2.27045",2.27045,"mmol/L",2.1,2.57,"NORMAL","",5,"WEEK 4","TREATMENT","2013-01-31T12:36",27],
["CDISCPILOT01","LB","CDISC007",81,"CHOL","Cholesterol","CHEMISTRY","212","mg/dL","149","286","5.48232",5.48232,"mmol/L",3.85,7.4,"NORMAL","",5,"WEEK 4","TREATMENT","2013-01-31T12:36",27],
["CDISCPILOT01","LB","CDISC007",82,"CK","Creatine Kinase","CHEMISTRY","75","U/L","22","198","75",75,"U/L",22,198,"NORMAL","",5,"WEEK 4","TREATMENT","2013-01-31T12:36",27],
["CDISCPILOT01","LB","CDISC007",83,"CL","Chloride","CHEMISTRY","107","mEq/L","94","112","107",107,"mmol/L",94,112,"NORMAL","",5,"WEEK 4","TREATMENT","2013-01-31T12:36",27],
["CDISCPILOT01","LB","CDISC007",84,"CREAT","Creatinine","CHEMISTRY","1.1","mg/dL","0.8","1.6","97.24",97.24,"umol/L",71,141,"NORMAL","",5,"WEEK 4","TREATMENT","2013-01-31T12:36",27],
["CDISCPILOT01","LB","CDISC007",86,"GGT","Gamma Glutamyl Transferase","CHEMISTRY","23","U/L","10","50","23",23,"U/L",10,50,"NORMAL","",5,"WEEK 4","TREATMENT","2013-01-31T12:36",27],
["CDISCPILOT01","LB","CDISC007",87,"GLUC","Glucose","CHEMISTRY","106","mg/dL","50","250","5.88406",5.88406,"mmol/L",2.8,13.9,"NORMAL","",5,"WEEK 4","TREATMENT","2013-01-31T12:36",27],
["CDISCPILOT01","LB","CDISC007",90,"K","Potassium","CHEMISTRY","4.6","mEq/L","3.4","5.4","4.6",4.6,"mmol/L",3.4,5.4,"NORMAL","",5,"WEEK 4","TREATMENT","2013-01-31T12:36",27],
["CDISCPILOT01","LB","CDISC007",96,"SODIUM","Sodium","CHEMISTRY","140","mEq/L","135","145","140",140,"mmol/L",135,145,"NORMAL","",5,"WEEK 4","TREATMENT","2013-01-31T12:36",27],
["CDISCPILOT01","LB","CDISC007",97,"PHOS","Phosphate","CHEMISTRY","4.0","mg/dL","2.2","5.1","1.2916",1.2916,"mmol/L",0.71,1.65,"NORMAL","",5,"WEEK 4","TREATMENT","2013-01-31T12:36",27],
["CDISCPILOT01","LB","CDISC007",99,"PROT","Protein","CHEMISTRY","7.3","g/dL","6","8","73",73,"g/L",60,80,"NORMAL","",5,"WEEK 4","TREATMENT","2013-01-31T12:36",27],
["CDISCPILOT01","LB","CDISC007",101,"URATE","Urate","CHEMISTRY","4.7","mg/dL","2.5","7.5","279.556",279.556,"umol/L",149,446,"NORMAL","",5,"WEEK 4","TREATMENT","2013-01-31T12:36",27],
["CDISCPILOT01","LB","CDISC007",103,"ALB","Albumin","CHEMISTRY","3.9","g/dL","3.3","4.9","39",39,"g/L",33,49,"NORMAL","",7,"WEEK 6","TREATMENT","2013-02-13T15:53",40],
["CDISCPILOT01","LB","CDISC007",104,"ALP","Alkaline Phosphatase","CHEMISTRY","98","U/L","35","115","98",98,"U/L",35,115,"NORMAL","",7,"WEEK 6","TREATMENT","2013-02-13T15:53",40],
["CDISCPILOT01","LB","CDISC007",105,"ALT","Alanine Aminotransferase","CHEMISTRY","23","U/L","6","43","23",23,"U/L",6,43,"NORMAL","",7,"WEEK 6","TREATMENT","2013-02-13T15:53",40],
["CDISCPILOT01","LB","CDISC007",106,"AST","Aspartate Aminotransferase","CHEMISTRY","19","U/L","11","36","19",19,"U/L",11,36,"NORMAL","",7,"WEEK 6","TREATMENT","2013-02-13T15:53",40],
["CDISCPILOT01","LB","CDISC007",108,"BILI","Bilirubin","CHEMISTRY","1.0","mg/dL","0.2","1.2","17.1",17.1,"umol/L",3,21,"NORMAL","",7,"WEEK 6","TREATMENT","2013-02-13T15:53",40],
["CDISCPILOT01","LB","CDISC007",109,"UREAN","Urea Nitrogen","CHEMISTRY","16","mg/dL","4","24","5.712",5.712,"mmol/L",1.4,8.6,"NORMAL","",7,"WEEK 6","TREATMENT","2013-02-13T15:53",40],
["CDISCPILOT01","LB","CDISC007",110,"CA","Calcium","CHEMISTRY","8.8","mg/dL","8.4","10.3","2.1956",2.1956,"mmol/L",2.1,2.57,"NORMAL","",7,"WEEK 6","TREATMENT","2013-02-13T15:53",40],
["CDISCPILOT01","LB","CDISC007",111,"CHOL","Cholesterol","CHEMISTRY","206","mg/dL","149","286","5.32716",5.32716,"mmol/L",3.85,7.4,"NORMAL","",7,"WEEK 6","TREATMENT","2013-02-13T15:53",40],
["CDISCPILOT01","LB","CDISC007",112,"CK","Creatine Kinase","CHEMISTRY","76","U/L","22","198","76",76,"U/L",22,198,"NORMAL","",7,"WEEK 6","TREATMENT","2013-02-13T15:53",40],
["CDISCPILOT01","LB","CDISC007",113,"CL","Chloride","CHEMISTRY","105","mEq/L","94","112","105",105,"mmol/L",94,112,"NORMAL","",7,"WEEK 6","TREATMENT","2013-02-13T15:53",40],
["CDISCPILOT01","LB","CDISC007",115,"CREAT","Creatinine","CHEMISTRY","1.2","mg/dL","0.8","1.6","106.08",106.08,"umol/L",71,141,"NORMAL","",7,"WEEK 6","TREATMENT","2013-02-13T15:53",40],
["CDISCPILOT01","LB","CDISC007",117,"GGT","Gamma Glutamyl Transferase","CHEMISTRY","24","U/L","10","50","24",24,"U/L",10,50,"NORMAL","",7,"WEEK 6","TREATMENT","2013-02-13T15:53",40],
["CDISCPILOT01","LB","CDISC007",118,"GLUC","Glucose","CHEMISTRY","134","mg/dL","50","250","7.43834",7.43834,"mmol/L",2.8,13.9,"NORMAL","",7,"WEEK 6","TREATMENT","2013-02-13T15:53",40],
["CDISCPILOT01","LB","CDISC007",121,"K","Potassium","CHEMISTRY","4.1","mEq/L","3.4","5.4","4.1",4.1,"mmol/L",3.4,5.4,"NORMAL","",7,"WEEK 6","TREATMENT","2013-02-13T15:53",40],
["CDISCPILOT01","LB","CDISC007",128,"SODIUM","Sodium","CHEMISTRY","138","mEq/L","135","145","138",138,"mmol/L",135,145,"NORMAL","",7,"WEEK 6","TREATMENT","2013-02-13T15:53",40],
["CDISCPILOT01","LB","CDISC007",130,"PHOS","Phosphate","CHEMISTRY","4.3","mg/dL","2.2","5.1","1.38847",1.38847,"mmol/L",0.71,1.65,"NORMAL","",7,"WEEK 6","TREATMENT","2013-02-13T15:53",40],
["CDISCPILOT01","LB","CDISC007",132,"PROT","Protein","CHEMISTRY","7.4","g/dL","6","8","74",74,"g/L",60,80,"NORMAL","",7,"WEEK 6","TREATMENT","2013-02-13T15:53",40],
["CDISCPILOT01","LB","CDISC007",135,"URATE","Urate","CHEMISTRY","5.5","mg/dL","2.5","7.5","327.14",327.14,"umol/L",149,446,"NORMAL","",7,"WEEK 6","TREATMENT","2013-02-13T15:53",40],
["CDISCPILOT01","LB","CDISC008",1,"ALB","Albumin","CHEMISTRY","3.8","g/dL","3.5","4.6","38",38,"g/L",35,46,"NORMAL","Y",1,"SCREENING 1","SCREENING","2014-05-01T12:17",-10],
["CDISCPILOT01","LB","CDISC008",2,"ALP","Alkaline Phosphatase","CHEMISTRY","76","U/L","35","115","76",76,"U/L",35,115,"NORMAL","Y",1,"SCREENING 1","SCREENING","2014-05-01T12:17",-10],
["CDISCPILOT01","LB","CDISC008",3,"ALT","Alanine Aminotransferase","CHEMISTRY","34","U/L","6","35","34",34,"U/L",6,35,"NORMAL","Y",1,"SCREENING 1","SCREENING","2014-05-01T12:17",-10],
["CDISCPILOT01","LB","CDISC008",4,"AST","Aspartate Aminotransferase","CHEMISTRY","31","U/L","11","36","31",31,"U/L",11,36,"NORMAL","Y",1,"SCREENING 1","SCREENING","2014-05-01T12:17",-10],
["CDISCPILOT01","LB","CDISC008",6,"BILI","Bilirubin","CHEMISTRY","0.4","mg/dL","0.2","1.2","6.84",6.84,"umol/L",3,21,"NORMAL","Y",1,"SCREENING 1","SCREENING","2014-05-01T12:17",-10],
["CDISCPILOT01","LB","CDISC008",7,"UREAN","Urea Nitrogen","CHEMISTRY","18","mg/dL","4","24","6.426",6.426,"mmol/L",1.4,8.6,"NORMAL","Y",1,"SCREENING 1","SCREENING","2014-05-01T12:17",-10],
["CDISCPILOT01","LB","CDISC008",8,"CA","Calcium","CHEMISTRY","9.6","mg/dL","8.4","10.3","2.3952",2.3952,"mmol/L",2.1,2.57,"NORMAL","Y",1,"SCREENING 1","SCREENING","2014-05-01T12:17",-10],
["CDISCPILOT01","LB","CDISC008",9,"CHOL","Cholesterol","CHEMISTRY","157","mg/dL","149","286","4.06002",4.06002,"mmol/L",3.85,7.4,"NORMAL","Y",1,"SCREENING 1","SCREENING","2014-05-01T12:17",-10],
["CDISCPILOT01","LB","CDISC008",10,"CK","Creatine Kinase","CHEMISTRY","200","U/L","22","198","200",200,"U/L",22,198,"HIGH","Y",1,"SCREENING 1","SCREENING","2014-05-01T12:17",-10],
["CDISCPILOT01","LB","CDISC008",11,"CL","Chloride","CHEMISTRY","106","mEq/L","94","112","106",106,"mmol/L",94,112,"NORMAL","Y",1,"SCREENING 1","SCREENING","2014-05-01T12:17",-10],
["CDISCPILOT01","LB","CDISC008",13,"CREAT","Creatinine","CHEMISTRY","1.0","mg/dL","0.8","1.6","88.4",88.4,"umol/L",71,141,"NORMAL","Y",1,"SCREENING 1","SCREENING","2014-05-01T12:17",-10],
["CDISCPILOT01","LB","CDISC008",15,"GGT","Gamma Glutamyl Transferase","CHEMISTRY","29","U/L","10","50","29",29,"U/L",10,50,"NORMAL","Y",1,"SCREENING 1","SCREENING","2014-05-01T12:17",-10],
["CDISCPILOT01","LB","CDISC008",16,"GLUC","Glucose","CHEMISTRY","139","mg/dL","50","250","7.71589",7.71589,"mmol/L",2.8,13.9,"NORMAL","Y",1,"SCREENING 1","SCREENING","2014-05-01T12:17",-10],
["CDISCPILOT01","LB","CDISC008",19,"K","Potassium","CHEMISTRY","4.2","mEq/L","3.4","5.4","4.2",4.2,"mmol/L",3.4,5.4,"NORMAL","Y",1,"SCREENING 1","SCREENING","2014-05-01T12:17",-10],
["CDISCPILOT01","LB","CDISC008",26,"SODIUM","Sodium","CHEMISTRY","140","mEq/L","135","145","140",140,"mmol/L",135,145,"NORMAL","Y",1,"SCREENING 1","SCREENING","2014-05-01T12:17",-10],
["CDISCPILOT01","LB","CDISC008",28,"PHOS","Phosphate","CHEMISTRY","3.4","mg/dL","2.2","5.1","1.09786",1.09786,"mmol/L",0.71,1.65,"NORMAL","Y",1,"SCREENING 1","SCREENING","2014-05-01T12:17",-10],
["CDISCPILOT01","LB","CDISC008",30,"PROT","Protein","CHEMISTRY","6.6","g/dL","6","8","66",66,"g/L",60,80,"NORMAL","Y",1,"SCREENING 1","SCREENING","2014-05-01T12:17",-10],
["CDISCPILOT01","LB","CDISC008",34,"URATE","Urate","CHEMISTRY","4.4","mg/dL","2.5","7.5","261.712",261.712,"umol/L",149,446,"NORMAL","Y",1,"SCREENING 1","SCREENING","2014-05-01T12:17",-10],
["CDISCPILOT01","LB","CDISC008",51,"ALB","Albumin","CHEMISTRY","3.8","g/dL","3.5","4.6","38",38,"g/L",35,46,"NORMAL","",4,"WEEK 2","TREATMENT","2014-05-25T09:16",15],
["CDISCPILOT01","LB","CDISC008",52,"ALP","Alkaline Phosphatase","CHEMISTRY","81","U/L","35","115","81",81,"U/L",35,115,"NORMAL","",4,"WEEK 2","TREATMENT","2014-05-25T09:16",15],
["CDISCPILOT01","LB","CDISC008",53,"ALT","Alanine Aminotransferase","CHEMISTRY","33","U/L","6","35","33",33,"U/L",6,35,"NORMAL","",4,"WEEK 2","TREATMENT","2014-05-25T09:16",15],
["CDISCPILOT01","LB","CDISC008",55,"AST","Aspartate Aminotransferase","CHEMISTRY","25","U/L","11","36","25",25,"U/L",11,36,"NORMAL","",4,"WEEK 2","TREATMENT","2014-05-25T09:16",15],
["CDISCPILOT01","LB","CDISC008",57,"BILI","Bilirubin","CHEMISTRY","0.5","mg/dL","0.2","1.2","8.55",8.55,"umol/L",3,21,"NORMAL","",4,"WEEK 2","TREATMENT","2014-05-25T09:16",15],
["CDISCPILOT01","LB","CDISC008",58,"UREAN","Urea Nitrogen","CHEMISTRY","16","mg/dL","4","24","5.712",5.712,"mmol/L",1.4,8.6,"NORMAL","",4,"WEEK 2","TREATMENT","2014-05-25T09:16",15],
["CDISCPILOT01","LB","CDISC008",59,"CA","Calcium","CHEMISTRY","9.5","mg/dL","8.4","10.3","2.37025",2.37025,"mmol/L",2.1,2.57,"NORMAL","",4,"WEEK 2","TREATMENT","2014-05-25T09:16",15],
["CDISCPILOT01","LB","CDISC008",60,"CHOL","Cholesterol","CHEMISTRY","158","mg/dL","149","286","4.08588",4.08588,"mmol/L",3.85,7.4,"NORMAL","",4,"WEEK 2","TREATMENT","2014-05-25T09:16",15],
["CDISCPILOT01","LB","CDISC008",61,"CK","Creatine Kinase","CHEMISTRY","170","U/L","22","198","170",170,"U/L",22,198,"NORMAL","",4,"WEEK 2","TREATMENT","2014-05-25T09:16",15],
["CDISCPILOT01","LB","CDISC008",62,"CL","Chloride","CHEMISTRY","100","mEq/L","94","112","100",100,"mmol/L",94,112,"NORMAL","",4,"WEEK 2","TREATMENT","2014-05-25T09:16",15],
["CDISCPILOT01","LB","CDISC008",64,"CREAT","Creatinine","CHEMISTRY","0.9","mg/dL","0.8","1.6","79.56",79.56,"umol/L",71,141,"NORMAL","",4,"WEEK 2","TREATMENT","2014-05-25T09:16",15],
["CDISCPILOT01","LB","CDISC008",66,"GGT","Gamma Glutamyl Transferase","CHEMISTRY","30","U/L","10","50","30",30,"U/L",10,50,"NORMAL","",4,"WEEK 2","TREATMENT","2014-05-25T09:16",15],
["CDISCPILOT01","LB","CDISC008",67,"GLUC","Glucose","CHEMISTRY","141","mg/dL","50","250","7.82691",7.82691,"mmol/L",2.8,13.9,"NORMAL","",4,"WEEK 2","TREATMENT","2014-05-25T09:16",15],
["CDISCPILOT01","LB","CDISC008",70,"K","Potassium","CHEMISTRY","4.3","mEq/L","3.4","5.4","4.3",4.3,"mmol/L",3.4,5.4,"NORMAL","",4,"WEEK 2","TREATMENT","2014-05-25T09:16",15],
["CDISCPILOT01","LB","CDISC008",77,"SODIUM","Sodium","CHEMISTRY","136","mEq/L","135","145","136",136,"mmol/L",135,145,"NORMAL","",4,"WEEK 2","TREATMENT","2014-05-25T09:16",15],
["CDISCPILOT01","LB","CDISC008",79,"PHOS","Phosphate","CHEMISTRY","3.5","mg/dL","2.2","5.1","1.13015",1.13015,"mmol/L",0.71,1.65,"NORMAL","",4,"WEEK 2","TREATMENT","2014-05-25T09:16",15],
["CDISCPILOT01","LB","CDISC008",82,"PROT","Protein","CHEMISTRY","6.6","g/dL","6","8","66",66,"g/L",60,80,"NORMAL","",4,"WEEK 2","TREATMENT","2014-05-25T09:16",15],
["CDISCPILOT01","LB","CDISC008",85,"URATE","Urate","CHEMISTRY","4.0","mg/dL","2.5","7.5","237.92",237.92,"umol/L",149,446,"NORMAL","",4,"WEEK 2","TREATMENT","2014-05-25T09:16",15],
["CDISCPILOT01","LB","CDISC008",88,"ALB","Albumin","CHEMISTRY","3.6","g/dL","3.5","4.6","36",36,"g/L",35,46,"NORMAL","",5,"WEEK 4","TREATMENT","2014-06-11T11:00",32],
["CDISCPILOT01","LB","CDISC008",89,"ALP","Alkaline Phosphatase","CHEMISTRY","84","U/L","35","115","84",84,"U/L",35,115,"NORMAL","",5,"WEEK 4","TREATMENT","2014-06-11T11:00",32],
["CDISCPILOT01","LB","CDISC008",90,"ALT","Alanine Aminotransferase","CHEMISTRY","44","U/L","6","35","44",44,"U/L",6,35,"HIGH","",5,"WEEK 4","TREATMENT","2014-06-11T11:00",32],
["CDISCPILOT01","LB","CDISC008",91,"AST","Aspartate Aminotransferase","CHEMISTRY","33","U/L","11","36","33",33,"U/L",11,36,"NORMAL","",5,"WEEK 4","TREATMENT","2014-06-11T11:00",32],
["CDISCPILOT01","LB","CDISC008",93,"BILI","Bilirubin","CHEMISTRY","0.6","mg/dL","0.2","1.2","10.26",10.26,"umol/L",3,21,"NORMAL","",5,"WEEK 4","TREATMENT","2014-06-11T11:00",32],
["CDISCPILOT01","LB","CDISC008",94,"UREAN","Urea Nitrogen","CHEMISTRY","18","mg/dL","4","24","6.426",6.426,"mmol/L",1.4,8.6,"NORMAL","",5,"WEEK 4","TREATMENT","2014-06-11T11:00",32],
["CDISCPILOT01","LB","CDISC008",95,"CA","Calcium","CHEMISTRY","9.4","mg/dL","8.4","10.3","2.3453",2.3453,"mmol/L",2.1,2.57,"NORMAL","",5,"WEEK 4","TREATMENT","2014-06-11T11:00",32],
["CDISCPILOT01","LB","CDISC008",96,"CHOL","Cholesterol","CHEMISTRY","158","mg/dL","149","286","4.08588",4.08588,"mmol/L",3.85,7.4,"NORMAL","",5,"WEEK 4","TREATMENT","2014-06-11T11:00",32],
["CDISCPILOT01","LB","CDISC008",97,"CK","Creatine Kinase","CHEMISTRY","158","U/L","22","198","158",158,"U/L",22,198,"NORMAL","",5,"WEEK 4","TREATMENT","2014-06-11T11:00",32],
["CDISCPILOT01","LB","CDISC008",98,"CL","Chloride","CHEMISTRY","101","mEq/L","94","112","101",101,"mmol/L",94,112,"NORMAL","",5,"WEEK 4","TREATMENT","2014-06-11T11:00",32],
["CDISCPILOT01","LB","CDISC008",99,"CREAT","Creatinine","CHEMISTRY","1.0","mg/dL","0.8","1.6","88.4",88.4,"umol/L",71,141,"NORMAL","",5,"WEEK 4","TREATMENT","2014-06-11T11:00",32],
["CDISCPILOT01","LB","CDISC008",101,"GGT","Gamma Glutamyl Transferase","CHEMISTRY","33","U/L","10","50","33",33,"U/L",10,50,"NORMAL","",5,"WEEK 4","TREATMENT","2014-06-11T11:00",32],
["CDISCPILOT01","LB","CDISC008",102,"GLUC","Glucose","CHEMISTRY","186","mg/dL","50","250","10.32486",10.32486,"mmol/L",2.8,13.9,"NORMAL","",5,"WEEK 4","TREATMENT","2014-06-11T11:00",32],
["CDISCPILOT01","LB","CDISC008",105,"K","Potassium","CHEMISTRY","4.2","mEq/L","3.4","5.4","4.2",4.2,"mmol/L",3.4,5.4,"NORMAL","",5,"WEEK 4","TREATMENT","2014-06-11T11:00",32],
["CDISCPILOT01","LB","CDISC008",111,"SODIUM","Sodium","CHEMISTRY","138","mEq/L","135","145","138",138,"mmol/L",135,145,"NORMAL","",5,"WEEK 4","TREATMENT","2014-06-11T11:00",32],
["CDISCPILOT01","LB","CDISC008",112,"PHOS","Phosphate","CHEMISTRY","3.9","mg/dL","2.2","5.1","1.25931",1.25931,"mmol/L",0.71,1.65,"NORMAL","",5,"WEEK 4","TREATMENT","2014-06-11T11:00",32],
["CDISCPILOT01","LB","CDISC008",114,"PROT","Protein","CHEMISTRY","6.7","g/dL","6","8","67",67,"g/L",60,80,"NORMAL","",5,"WEEK 4","TREATMENT","2014-06-11T11:00",32],
["CDISCPILOT01","LB","CDISC008",116,"URATE","Urate","CHEMISTRY","3.9","mg/dL","2.5","7.5","231.972",231.972,"umol/L",149,446,"NORMAL","",5,"WEEK 4","TREATMENT","2014-06-11T11:00",32],
["CDISCPILOT01","LB","CDISC008",118,"ALB","Albumin","CHEMISTRY","3.8","g/dL","3.5","4.6","38",38,"g/L",35,46,"NORMAL","",7,"WEEK 6","TREATMENT","2014-06-25T14:15",46],
["CDISCPILOT01","LB","CDISC008",119,"ALP","Alkaline Phosphatase","CHEMISTRY","87","U/L","35","115","87",87,"U/L",35,115,"NORMAL","",7,"WEEK 6","TREATMENT","2014-06-25T14:15",46],
["CDISCPILOT01","LB","CDISC008",120,"ALT","Alanine Aminotransferase","CHEMISTRY","43","U/L","6","35","43",43,"U/L",6,35,"HIGH","",7,"WEEK 6","TREATMENT","2014-06-25T14:15",46],
["CDISCPILOT01","LB","CDISC008",121,"AST","Aspartate Aminotransferase","CHEMISTRY","30","U/L","11","36","30",30,"U/L",11,36,"NORMAL","",7,"WEEK 6","TREATMENT","2014-06-25T14:15",46],
["CDISCPILOT01","LB","CDISC008",123,"BILI","Bilirubin","CHEMISTRY","0.5","mg/dL","0.2","1.2","8.55",8.55,"umol/L",3,21,"NORMAL","",7,"WEEK 6","TREATMENT","2014-06-25T14:15",46],
["CDISCPILOT01","LB","CDISC008",124,"UREAN","Urea Nitrogen","CHEMISTRY","20","mg/dL","4","24","7.14",7.14,"mmol/L",1.4,8.6,"NORMAL","",7,"WEEK 6","TREATMENT","2014-06-25T14:15",46],
["CDISCPILOT01","LB","CDISC008",125,"CA","Calcium","CHEMISTRY","9.8","mg/dL","8.4","10.3","2.4451",2.4451,"mmol/L",2.1,2.57,"NORMAL","",7,"WEEK 6","TREATMENT","2014-06-25T14:15",46],
["CDISCPILOT01","LB","CDISC008",126,"CHOL","Cholesterol","CHEMISTRY","161","mg/dL","149","286","4.16346",4.16346,"mmol/L",3.85,7.4,"NORMAL","",7,"WEEK 6","TREATMENT","2014-06-25T14:15",46],
["CDISCPILOT01","LB","CDISC008",127,"CK","Creatine Kinase","CHEMISTRY","174","U/L","22","198","174",174,"U/L",22,198,"NORMAL","",7,"WEEK 6","TREATMENT","2014-06-25T14:15",46],
["CDISCPILOT01","LB","CDISC008",128,"CL","Chloride","CHEMISTRY","106","mEq/L","94","112","106",106,"mmol/L",94,112,"NORMAL","",7,"WEEK 6","TREATMENT","2014-06-25T14:15",46],
["CDISCPILOT01","LB","CDISC008",129,"CREAT","Creatinine","CHEMISTRY","1.0","mg/dL","0.8","1.6","88.4",88.4,"umol/L",71,141,"NORMAL","",7,"WEEK 6","TREATMENT","2014-06-25T14:15",46],
["CDISCPILOT01","LB","CDISC008",131,"GGT","Gamma Glutamyl Transferase","CHEMISTRY","32","U/L","10","50","32",32,"U/L",10,50,"NORMAL","",7,"WEEK 6","TREATMENT","2014-06-25T14:15",46],
["CDISCPILOT01","LB","CDISC008",132,"GLUC","Glucose","CHEMISTRY","168","mg/dL","50","250","9.32568",9.32568,"mmol/L",2.8,13.9,"NORMAL","",7,"WEEK 6","TREATMENT","2014-06-25T14:15",46],
["CDISCPILOT01","LB","CDISC008",135,"K","Potassium","CHEMISTRY","4.4","mEq/L","3.4","5.4","4.4",4.4,"mmol/L",3.4,5.4,"NORMAL","",7,"WEEK 6","TREATMENT","2014-06-25T14:15",46],
["CDISCPILOT01","LB","CDISC008",141,"SODIUM","Sodium","CHEMISTRY","139","mEq/L","135","145","139",139,"mmol/L",135,145,"NORMAL","",7,"WEEK 6","TREATMENT","2014-06-25T14:15",46],
["CDISCPILOT01","LB","CDISC008",142,"PHOS","Phosphate","CHEMISTRY","3.7","mg/dL","2.2","5.1","1.19473",1.19473,"mmol/L",0.71,1.65,"NORMAL","",7,"WEEK 6","TREATMENT","2014-06-25T14:15",46],
["CDISCPILOT01","LB","CDISC008",144,"PROT","Protein","CHEMISTRY","6.7","g/dL","6","8","67",67,"g/L",60,80,"NORMAL","",7,"WEEK 6","TREATMENT","2014-06-25T14:15",46],
["CDISCPILOT01","LB","CDISC008",146,"URATE","Urate","CHEMISTRY","4.0","mg/dL","2.5","7.5","237.92",237.92,"umol/L",149,446,"NORMAL","",7,"WEEK 6","TREATMENT","2014-06-25T14:15",46],
["CDISCPILOT01","LB","CDISC008",148,"ALB","Albumin","CHEMISTRY","3.7","g/dL","3.5","4.6","37",37,"g/L",35,46,"NORMAL","",8,"WEEK 8","TREATMENT","2014-07-09T11:15",60],
["CDISCPILOT01","LB","CDISC008",149,"ALP","Alkaline Phosphatase","CHEMISTRY","80","U/L","35","115","80",80,"U/L",35,115,"NORMAL","",8,"WEEK 8","TREATMENT","2014-07-09T11:15",60],
["CDISCPILOT01","LB","CDISC008",150,"ALT","Alanine Aminotransferase","CHEMISTRY","48","U/L","6","35","48",48,"U/L",6,35,"HIGH","",8,"WEEK 8","TREATMENT","2014-07-09T11:15",60],
["CDISCPILOT01","LB","CDISC008",151,"AST","Aspartate Aminotransferase","CHEMISTRY","37","U/L","11","36","37",37,"U/L",11,36,"HIGH","",8,"WEEK 8","TREATMENT","2014-07-09T11:15",60],
["CDISCPILOT01","LB","CDISC008",153,"BILI","Bilirubin","CHEMISTRY","0.7","mg/dL","0.2","1.2","11.97",11.97,"umol/L",3,21,"NORMAL","",8,"WEEK 8","TREATMENT","2014-07-09T11:15",60],
["CDISCPILOT01","LB","CDISC008",154,"UREAN","Urea Nitrogen","CHEMISTRY","15","mg/dL","4","24","5.355",5.355,"mmol/L",1.4,8.6,"NORMAL","",8,"WEEK 8","TREATMENT","2014-07-09T11:15",60],
["CDISCPILOT01","LB","CDISC008",155,"CA","Calcium","CHEMISTRY","9.4","mg/dL","8.4","10.3","2.3453",2.3453,"mmol/L",2.1,2.57,"NORMAL","",8,"WEEK 8","TREATMENT","2014-07-09T11:15",60],
["CDISCPILOT01","LB","CDISC008",156,"CHOL","Cholesterol","CHEMISTRY","156","mg/dL","149","286","4.03416",4.03416,"mmol/L",3.85,7.4,"NORMAL","",8,"WEEK 8","TREATMENT","2014-07-09T11:15",60],
["CDISCPILOT01","LB","CDISC008",157,"CK","Creatine Kinase","CHEMISTRY","178","U/L","22","198","178",178,"U/L",22,198,"NORMAL","",8,"WEEK 8","TREATMENT","2014-07-09T11:15",60],
["CDISCPILOT01","LB","CDISC008",158,"CL","Chloride","CHEMISTRY","101","mEq/L","94","112","101",101,"mmol/L",94,112,"NORMAL","",8,"WEEK 8","TREATMENT","2014-07-09T11:15",60],
["CDISCPILOT01","LB","CDISC008",159,"CREAT","Creatinine","CHEMISTRY","1.0","mg/dL","0.8","1.6","88.4",88.4,"umol/L",71,141,"NORMAL","",8,"WEEK 8","TREATMENT","2014-07-09T11:15",60],
["CDISCPILOT01","LB","CDISC008",161,"GGT","Gamma Glutamyl Transferase","CHEMISTRY","31","U/L","10","50","31",31,"U/L",10,50,"NORMAL","",8,"WEEK 8","TREATMENT","2014-07-09T11:15",60],
["CDISCPILOT01","LB","CDISC008",162,"GLUC","Glucose","CHEMISTRY","137","mg/dL","50","250","7.60487",7.60487,"mmol/L",2.8,13.9,"NORMAL","",8,"WEEK 8","TREATMENT","2014-07-09T11:15",60],
["CDISCPILOT01","LB","CDISC008",165,"K","Potassium","CHEMISTRY","3.9","mEq/L","3.4","5.4","3.9",3.9,"mmol/L",3.4,5.4,"NORMAL","",8,"WEEK 8","TREATMENT","2014-07-09T11:15",60],
["CDISCPILOT01","LB","CDISC008",171,"SODIUM","Sodium","CHEMISTRY","137","mEq/L","135","145","137",137,"mmol/L",135,145,"NORMAL","",8,"WEEK 8","TREATMENT","2014-07-09T11:15",60],
["CDISCPILOT01","LB","CDISC008",172,"PHOS","Phosphate","CHEMISTRY","3.5","mg/dL","2.2","5.1","1.13015",1.13015,"mmol/L",0.71,1.65,"NORMAL","",8,"WEEK 8","TREATMENT","2014-07-09T11:15",60],
["CDISCPILOT01","LB","CDISC008",174,"PROT","Protein","CHEMISTRY","6.7","g/dL","6","8","67",67,"g/L",60,80,"NORMAL","",8,"WEEK 8","TREATMENT","2014-07-09T11:15",60],
["CDISCPILOT01","LB","CDISC008",176,"URATE","Urate","CHEMISTRY","3.8","mg/dL","2.5","7.5","226.024",226.024,"umol/L",149,446,"NORMAL","",8,"WEEK 8","TREATMENT","2014-07-09T11:15",60],
["CDISCPILOT01","LB","CDISC008",178,"ALB","Albumin","CHEMISTRY","3.7","g/dL","3.5","4.6","37",37,"g/L",35,46,"NORMAL","",9,"WEEK 12","TREATMENT","2014-08-06T15:45",88],
["CDISCPILOT01","LB","CDISC008",179,"ALP","Alkaline Phosphatase","CHEMISTRY","77","U/L","35","115","77",77,"U/L",35,115,"NORMAL","",9,"WEEK 12","TREATMENT","2014-08-06T15:45",88],
["CDISCPILOT01","LB","CDISC008",180,"ALT","Alanine Aminotransferase","CHEMISTRY","42","U/L","6","35","42",42,"U/L",6,35,"HIGH","",9,"WEEK 12","TREATMENT","2014-08-06T15:45",88],
["CDISCPILOT01","LB","CDISC008",181,"AST","Aspartate Aminotransferase","CHEMISTRY","33","U/L","11","36","33",33,"U/L",11,36,"NORMAL","",9,"WEEK 12","TREATMENT","2014-08-06T15:45",88],
["CDISCPILOT01","LB","CDISC008",183,"BILI","Bilirubin","CHEMISTRY","0.5","mg/dL","0.2","1.2","8.55",8.55,"umol/L",3,21,"NORMAL","",9,"WEEK 12","TREATMENT","2014-08-06T15:45",88],
["CDISCPILOT01","LB","CDISC008",184,"UREAN","Urea Nitrogen","CHEMISTRY","21","mg/dL","4","24","7.497",7.497,"mmol/L",1.4,8.6,"NORMAL","",9,"WEEK 12","TREATMENT","2014-08-06T15:45",88],
["CDISCPILOT01","LB","CDISC008",185,"CA","Calcium","CHEMISTRY","9.3","mg/dL","8.4","10.3","2.32035",2.32035,"mmol/L",2.1,2.57,"NORMAL","",9,"WEEK 12","TREATMENT","2014-08-06T15:45",88],
["CDISCPILOT01","LB","CDISC008",186,"CHOL","Cholesterol","CHEMISTRY","153","mg/dL","149","286","3.95658",3.95658,"mmol/L",3.85,7.4,"NORMAL","",9,"WEEK 12","TREATMENT","2014-08-06T15:45",88],
["CDISCPILOT01","LB","CDISC008",187,"CK","Creatine Kinase","CHEMISTRY","186","U/L","22","198","186",186,"U/L",22,198,"NORMAL","",9,"WEEK 12","TREATMENT","2014-08-06T15:45",88],
["CDISCPILOT01","LB","CDISC008",188,"CL","Chloride","CHEMISTRY","100","mEq/L","94","112","100",100,"mmol/L",94,112,"NORMAL","",9,"WEEK 12","TREATMENT","2014-08-06T15:45",88],
["CDISCPILOT01","LB","CDISC008",190,"CREAT","Creatinine","CHEMISTRY","1.3","mg/dL","0.8","1.6","114.92",114.92,"umol/L",71,141,"NORMAL","",9,"WEEK 12","TREATMENT","2014-08-06T15:45",88],
["CDISCPILOT01","LB","CDISC008",192,"GGT","Gamma Glutamyl Transferase","CHEMISTRY","31","U/L","10","50","31",31,"U/L",10,50,"NORMAL","",9,"WEEK 12","TREATMENT","2014-08-06T15:45",88],
["CDISCPILOT01","LB","CDISC008",193,"GLUC","Glucose","CHEMISTRY","211","mg/dL","50","250","11.71261",11.71261,"mmol/L",2.8,13.9,"NORMAL","",9,"WEEK 12","TREATMENT","2014-08-06T15:45",88],
["CDISCPILOT01","LB","CDISC008",196,"K","Potassium","CHEMISTRY","4.0","mEq/L","3.4","5.4","4",4,"mmol/L",3.4,5.4,"NORMAL","",9,"WEEK 12","TREATMENT","2014-08-06T15:45",88],
["CDISCPILOT01","LB","CDISC008",203,"SODIUM","Sodium","CHEMISTRY","136","mEq/L","135","145","136",136,"mmol/L",135,145,"NORMAL","",9,"WEEK 12","TREATMENT","2014-08-06T15:45",88],
["CDISCPILOT01","LB","CDISC008",205,"PHOS","Phosphate","CHEMISTRY","4.0","mg/dL","2.2","5.1","1.2916",1.2916,"mmol/L",0.71,1.65,"NORMAL","",9,"WEEK 12","TREATMENT","2014-08-06T15:45",88],
["CDISCPILOT01","LB","CDISC008",207,"PROT","Protein","CHEMISTRY","6.6","g/dL","6","8","66",66,"g/L",60,80,"NORMAL","",9,"WEEK 12","TREATMENT","2014-08-06T15:45",88],
["CDISCPILOT01","LB","CDISC008",210,"URATE","Urate","CHEMISTRY","3.9","mg/dL","2.5","7.5","231.972",231.972,"umol/L",149,446,"NORMAL","",9,"WEEK 12","TREATMENT","2014-08-06T15:45",88],
["CDISCPILOT01","LB","CDISC008",213,"ALB","Albumin","CHEMISTRY","3.9","g/dL","3.5","4.6","39",39,"g/L",35,46,"NORMAL","",10,"WEEK 16","TREATMENT","2014-09-03T10:30",116],
["CDISCPILOT01","LB","CDISC008",214,"ALP","Alkaline Phosphatase","CHEMISTRY","81","U/L","35","115","81",81,"U/L",35,115,"NORMAL","",10,"WEEK 16","TREATMENT","2014-09-03T10:30",116],
["CDISCPILOT01","LB","CDISC008",215,"ALT","Alanine Aminotransferase","CHEMISTRY","48","U/L","6","35","48",48,"U/L",6,35,"HIGH","",10,"WEEK 16","TREATMENT","2014-09-03T10:30",116],
["CDISCPILOT01","LB","CDISC008",216,"AST","Aspartate Aminotransferase","CHEMISTRY","40","U/L","11","36","40",40,"U/L",11,36,"HIGH","",10,"WEEK 16","TREATMENT","2014-09-03T10:30",116],
["CDISCPILOT01","LB","CDISC008",218,"BILI","Bilirubin","CHEMISTRY","0.6","mg/dL","0.2","1.2","10.26",10.26,"umol/L",3,21,"NORMAL","",10,"WEEK 16","TREATMENT","2014-09-03T10:30",116],
["CDISCPILOT01","LB","CDISC008",219,"UREAN","Urea Nitrogen","CHEMISTRY","15","mg/dL","4","24","5.355",5.355,"mmol/L",1.4,8.6,"NORMAL","",10,"WEEK 16","TREATMENT","2014-09-03T10:30",116],
["CDISCPILOT01","LB","CDISC008",220,"CA","Calcium","CHEMISTRY","9.7","mg/dL","8.4","10.3","2.42015",2.42015,"mmol/L",2.1,2.57,"NORMAL","",10,"WEEK 16","TREATMENT","2014-09-03T10:30",116],
["CDISCPILOT01","LB","CDISC008",221,"CHOL","Cholesterol","CHEMISTRY","174","mg/dL","149","286","4.49964",4.49964,"mmol/L",3.85,7.4,"NORMAL","",10,"WEEK 16","TREATMENT","2014-09-03T10:30",116],
["CDISCPILOT01","LB","CDISC008",222,"CK","Creatine Kinase","CHEMISTRY","147","U/L","22","198","147",147,"U/L",22,198,"NORMAL","",10,"WEEK 16","TREATMENT","2014-09-03T10:30",116],
["CDISCPILOT01","LB","CDISC008",223,"CL","Chloride","CHEMISTRY","100","mEq/L","94","112","100",100,"mmol/L",94,112,"NORMAL","",10,"WEEK 16","TREATMENT","2014-09-03T10:30",116],
["CDISCPILOT01","LB","CDISC008",224,"CREAT","Creatinine","CHEMISTRY","1.0","mg/dL","0.8","1.6","88.4",88.4,"umol/L",71,141,"NORMAL","",10,"WEEK 16","TREATMENT","2014-09-03T10:30",116],
["CDISCPILOT01","LB","CDISC008",226,"GGT","Gamma Glutamyl Transferase","CHEMISTRY","37","U/L","10","50","37",37,"U/L",10,50,"NORMAL","",10,"WEEK 16","TREATMENT","2014-09-03T10:30",116],
["CDISCPILOT01","LB","CDISC008",227,"GLUC","Glucose","CHEMISTRY","164","mg/dL","50","250","9.10364",9.10364,"mmol/L",2.8,13.9,"NORMAL","",10,"WEEK 16","TREATMENT","2014-09-03T10:30",116],
["CDISCPILOT01","LB","CDISC008",230,"K","Potassium","CHEMISTRY","4.3","mEq/L","3.4","5.4","4.3",4.3,"mmol/L",3.4,5.4,"NORMAL","",10,"WEEK 16","TREATMENT","2014-09-03T10:30",116],
["CDISCPILOT01","LB","CDISC008",236,"SODIUM","Sodium","CHEMISTRY","137","mEq/L","135","145","137",137,"mmol/L",135,145,"NORMAL","",10,"WEEK 16","TREATMENT","2014-09-03T10:30",116],
["CDISCPILOT01","LB","CDISC008",237,"PHOS","Phosphate","CHEMISTRY","3.6","mg/dL","2.2","5.1","1.16244",1.16244,"mmol/L",0.71,1.65,"NORMAL","",10,"WEEK 16","TREATMENT","2014-09-03T10:30",116],
["CDISCPILOT01","LB","CDISC008",239,"PROT","Protein","CHEMISTRY","6.9","g/dL","6","8","69",69,"g/L",60,80,"NORMAL","",10,"WEEK 16","TREATMENT","2014-09-03T10:30",116],
["CDISCPILOT01","LB","CDISC008",241,"URATE","Urate","CHEMISTRY","3.4","mg/dL","2.5","7.5","202.232",202.232,"umol/L",149,446,"NORMAL","",10,"WEEK 16","TREATMENT","2014-09-03T10:30",116],
["CDISCPILOT01","LB","CDISC008",243,"ALB","Albumin","CHEMISTRY","3.7","g/dL","3.5","4.6","37",37,"g/L",35,46,"NORMAL","",11,"WEEK 20","TREATMENT","2014-10-01T09:30",144],
["CDISCPILOT01","LB","CDISC008",244,"ALP","Alkaline Phosphatase","CHEMISTRY","77","U/L","35","115","77",77,"U/L",35,115,"NORMAL","",11,"WEEK 20","TREATMENT","2014-10-01T09:30",144],
["CDISCPILOT01","LB","CDISC008",245,"ALT","Alanine Aminotransferase","CHEMISTRY","31","U/L","6","35","31",31,"U/L",6,35,"NORMAL","",11,"WEEK 20","TREATMENT","2014-10-01T09:30",144],
["CDISCPILOT01","LB","CDISC008",246,"AST","Aspartate Aminotransferase","CHEMISTRY","29","U/L","11","36","29",29,"U/L",11,36,"NORMAL","",11,"WEEK 20","TREATMENT","2014-10-01T09:30",144],
["CDISCPILOT01","LB","CDISC008",248,"BILI","Bilirubin","CHEMISTRY","0.5","mg/dL","0.2","1.2","8.55",8.55,"umol/L",3,21,"NORMAL","",11,"WEEK 20","TREATMENT","2014-10-01T09:30",144],
["CDISCPILOT01","LB","CDISC008",249,"UREAN","Urea Nitrogen","CHEMISTRY","17","mg/dL","4","24","6.069",6.069,"mmol/L",1.4,8.6,"NORMAL","",11,"WEEK 20","TREATMENT","2014-10-01T09:30",144],
["CDISCPILOT01","LB","CDISC008",250,"CA","Calcium","CHEMISTRY","9.7","mg/dL","8.4","10.3","2.42015",2.42015,"mmol/L",2.1,2.57,"NORMAL","",11,"WEEK 20","TREATMENT","2014-10-01T09:30",144],
["CDISCPILOT01","LB","CDISC008",251,"CHOL","Cholesterol","CHEMISTRY","162","mg/dL","149","286","4.18932",4.18932,"mmol/L",3.85,7.4,"NORMAL","",11,"WEEK 20","TREATMENT","2014-10-01T09:30",144],
["CDISCPILOT01","LB","CDISC008",252,"CK","Creatine Kinase","CHEMISTRY","111","U/L","22","198","111",111,"U/L",22,198,"NORMAL","",11,"WEEK 20","TREATMENT","2014-10-01T09:30",144],
["CDISCPILOT01","LB","CDISC008",254,"CREAT","Creatinine","CHEMISTRY","1.0","mg/dL","0.8","1.6","88.4",88.4,"umol/L",71,141,"NORMAL","",11,"WEEK 20","TREATMENT","2014-10-01T09:30",144],
["CDISCPILOT01","LB","CDISC008",256,"GGT","Gamma Glutamyl Transferase","CHEMISTRY","30","U/L","10","50","30",30,"U/L",10,50,"NORMAL","",11,"WEEK 20","TREATMENT","2014-10-01T09:30",144],
["CDISCPILOT01","LB","CDISC008",257,"GLUC","Glucose","CHEMISTRY","171","mg/dL","50","250","9.49221",9.49221,"mmol/L",2.8,13.9,"NORMAL","",11,"WEEK 20","TREATMENT","2014-10-01T09:30",144],
["CDISCPILOT01","LB","CDISC008",267,"PHOS","Phosphate","CHEMISTRY","3.5","mg/dL","2.2","5.1","1.13015",1.13015,"mmol/L",0.71,1.65,"NORMAL","",11,"WEEK 20","TREATMENT","2014-10-01T09:30",144],
["CDISCPILOT01","LB","CDISC008",269,"PROT","Protein","CHEMISTRY","7.0","g/dL","6","8","70",70,"g/L",60,80,"NORMAL","",11,"WEEK 20","TREATMENT","2014-10-01T09:30",144],
["CDISCPILOT01","LB","CDISC008",272,"URATE","Urate","CHEMISTRY","3.6","mg/dL","2.5","7.5","214.128",214.128,"umol/L",149,446,"NORMAL","",11,"WEEK 20","TREATMENT","2014-10-01T09:30",144],
["CDISCPILOT01","LB","CDISC009",1,"ALB","Albumin","CHEMISTRY","3.7","g/dL","3.5","4.6","37",37,"g/L",35,46,"NORMAL","Y",1,"SCREENING 1","SCREENING","2012-10-06T13:25",-16],
["CDISCPILOT01","LB","CDISC009",2,"ALP","Alkaline Phosphatase","CHEMISTRY","69","U/L","35","115","69",69,"U/L",35,115,"NORMAL","Y",1,"SCREENING 1","SCREENING","2012-10-06T13:25",-16],
["CDISCPILOT01","LB","CDISC009",3,"ALT","Alanine Aminotransferase","CHEMISTRY","9","U/L","6","32","9",9,"U/L",6,32,"NORMAL","Y",1,"SCREENING 1","SCREENING","2012-10-06T13:25",-16],
["CDISCPILOT01","LB","CDISC009",4,"AST","Aspartate Aminotransferase","CHEMISTRY","12","U/L","9","34","12",12,"U/L",9,34,"NORMAL","Y",1,"SCREENING 1","SCREENING","2012-10-06T13:25",-16],
["CDISCPILOT01","LB","CDISC009",6,"BILI","Bilirubin","CHEMISTRY","0.5","mg/dL","0.2","1.2","8.55",8.55,"umol/L",3,21,"NORMAL","Y",1,"SCREENING 1","SCREENING","2012-10-06T13:25",-16],
["CDISCPILOT01","LB","CDISC009",7,"UREAN","Urea Nitrogen","CHEMISTRY","10","mg/dL","4","24","3.57",3.57,"mmol/L",1.4,8.6,"NORMAL","Y",1,"SCREENING 1","SCREENING","2012-10-06T13:25",-16],
["CDISCPILOT01","LB","CDISC009",8,"CA","Calcium","CHEMISTRY","8.8","mg/dL","8.4","10.3","2.1956",2.1956,"mmol/L",2.1,2.57,"NORMAL","Y",1,"SCREENING 1","SCREENING","2012-10-06T13:25",-16],
["CDISCPILOT01","LB","CDISC009",9,"CHOL","Cholesterol","CHEMISTRY","215","mg/dL","156","300","5.5599",5.5599,"mmol/L",4.03,7.76,"NORMAL","Y",1,"SCREENING 1","SCREENING","2012-10-06T13:25",-16],
["CDISCPILOT01","LB","CDISC009",10,"CK","Creatine Kinase","CHEMISTRY","35","U/L","21","169","35",35,"U/L",21,169,"NORMAL","Y",1,"SCREENING 1","SCREENING","2012-10-06T13:25",-16],
["CDISCPILOT01","LB","CDISC009",11,"CL","Chloride","CHEMISTRY","109","mEq/L","94","112","109",109,"mmol/L",94,112,"NORMAL","Y",1,"SCREENING 1","SCREENING","2012-10-06T13:25",-16],
["CDISCPILOT01","LB","CDISC009",13,"CREAT","Creatinine","CHEMISTRY","0.8","mg/dL","0.7","1.4","70.72",70.72,"umol/L",62,124,"NORMAL","Y",1,"SCREENING 1","SCREENING","2012-10-06T13:25",-16],
["CDISCPILOT01","LB","CDISC009",15,"GGT","Gamma Glutamyl Transferase","CHEMISTRY","11","U/L","5","50","11",11,"U/L",5,50,"NORMAL","Y",1,"SCREENING 1","SCREENING","2012-10-06T13:25",-16],
["CDISCPILOT01","LB","CDISC009",16,"GLUC","Glucose","CHEMISTRY","90","mg/dL","50","250","4.9959",4.9959,"mmol/L",2.8,13.9,"NORMAL","Y",1,"SCREENING 1","SCREENING","2012-10-06T13:25",-16],
["CDISCPILOT01","LB","CDISC009",19,"K","Potassium","CHEMISTRY","3.5","mEq/L","3.4","5.4","3.5",3.5,"mmol/L",3.4,5.4,"NORMAL","Y",1,"SCREENING 1","SCREENING","2012-10-06T13:25",-16],
["CDISCPILOT01","LB","CDISC009",26,"SODIUM","Sodium","CHEMISTRY","139","mEq/L","135","145","139",139,"mmol/L",135,145,"NORMAL","Y",1,"SCREENING 1","SCREENING","2012-10-06T13:25",-16],
["CDISCPILOT01","LB","CDISC009",28,"PHOS","Phosphate","CHEMISTRY","2.5","mg/dL","2.2","5.1","0.80725",0.80725,"mmol/L",0.71,1.65,"NORMAL","Y",1,"SCREENING 1","SCREENING","2012-10-06T13:25",-16],
["CDISCPILOT01","LB","CDISC009",30,"PROT","Protein","CHEMISTRY","6.6","g/dL","6","8","66",66,"g/L",60,80,"NORMAL","Y",1,"SCREENING 1","SCREENING","2012-10-06T13:25",-16],
["CDISCPILOT01","LB","CDISC009",34,"URATE","Urate","CHEMISTRY","4.6","mg/dL","2.5","7.5","273.608",273.608,"umol/L",149,446,"NORMAL","Y",1,"SCREENING 1","SCREENING","2012-10-06T13:25",-16],
["CDISCPILOT01","LB","CDISC009",38,"ALB","Albumin","CHEMISTRY","3.3","g/dL","3.5","4.6","33",33,"g/L",35,46,"LOW","",4,"WEEK 2","TREATMENT","2012-11-05T11:15",15],
["CDISCPILOT01","LB","CDISC009",39,"ALP","Alkaline Phosphatase","CHEMISTRY","67","U/L","35","115","67",67,"U/L",35,115,"NORMAL","",4,"WEEK 2","TREATMENT","2012-11-05T11:15",15],
["CDISCPILOT01","LB","CDISC009",40,"ALT","Alanine Aminotransferase","CHEMISTRY","13","U/L","6","32","13",13,"U/L",6,32,"NORMAL","",4,"WEEK 2","TREATMENT","2012-11-05T11:15",15],
["CDISCPILOT01","LB","CDISC009",41,"AST","Aspartate Aminotransferase","CHEMISTRY","12","U/L","9","34","12",12,"U/L",9,34,"NORMAL","",4,"WEEK 2","TREATMENT","2012-11-05T11:15",15],
["CDISCPILOT01","LB","CDISC009",43,"BILI","Bilirubin","CHEMISTRY","0.5","mg/dL","0.2","1.2","8.55",8.55,"umol/L",3,21,"NORMAL","",4,"WEEK 2","TREATMENT","2012-11-05T11:15",15],
["CDISCPILOT01","LB","CDISC009",44,"UREAN","Urea Nitrogen","CHEMISTRY","8","mg/dL","4","24","2.856",2.856,"mmol/L",1.4,8.6,"NORMAL","",4,"WEEK 2","TREATMENT","2012-11-05T11:15",15],
["CDISCPILOT01","LB","CDISC009",45,"CA","Calcium","CHEMISTRY","8.4","mg/dL","8.4","10.3","2.0958",2.0958,"mmol/L",2.1,2.57,"NORMAL","",4,"WEEK 2","TREATMENT","2012-11-05T11:15",15],
["CDISCPILOT01","LB","CDISC009",46,"CHOL","Cholesterol","CHEMISTRY","189","mg/dL","156","300","4.88754",4.88754,"mmol/L",4.03,7.76,"NORMAL","",4,"WEEK 2","TREATMENT","2012-11-05T11:15",15],
["CDISCPILOT01","LB","CDISC009",47,"CK","Creatine Kinase","CHEMISTRY","36","U/L","21","169","36",36,"U/L",21,169,"NORMAL","",4,"WEEK 2","TREATMENT","2012-11-05T11:15",15],
["CDISCPILOT01","LB","CDISC009",48,"CL","Chloride","CHEMISTRY","106","mEq/L","94","112","106",106,"mmol/L",94,112,"NORMAL","",4,"WEEK 2","TREATMENT","2012-11-05T11:15",15],
["CDISCPILOT01","LB","CDISC009",50,"CREAT","Creatinine","CHEMISTRY","0.8","mg/dL","0.7","1.4","70.72",70.72,"umol/L",62,124,"NORMAL","",4,"WEEK 2","TREATMENT","2012-11-05T11:15",15],
["CDISCPILOT01","LB","CDISC009",52,"GGT","Gamma Glutamyl Transferase","CHEMISTRY","10","U/L","5","50","10",10,"U/L",5,50,"NORMAL","",4,"WEEK 2","TREATMENT","2012-11-05T11:15",15],
["CDISCPILOT01","LB","CDISC009",53,"GLUC","Glucose","CHEMISTRY","99","mg/dL","50","250","5.49549",5.49549,"mmol/L",2.8,13.9,"NORMAL","",4,"WEEK 2","TREATMENT","2012-11-05T11:15",15],
["CDISCPILOT01","LB","CDISC009",56,"K","Potassium","CHEMISTRY","3.7","mEq/L","3.4","5.4","3.7",3.7,"mmol/L",3.4,5.4,"NORMAL","",4,"WEEK 2","TREATMENT","2012-11-05T11:15",15],
["CDISCPILOT01","LB","CDISC009",63,"SODIUM","Sodium","CHEMISTRY","139","mEq/L","135","145","139",139,"mmol/L",135,145,"NORMAL","",4,"WEEK 2","TREATMENT","2012-11-05T11:15",15],
["CDISCPILOT01","LB","CDISC009",65,"PHOS","Phosphate","CHEMISTRY","2.2","mg/dL","2.2","5.1","0.71038",0.71038,"mmol/L",0.71,1.65,"NORMAL","",4,"WEEK 2","TREATMENT","2012-11-05T11:15",15],
["CDISCPILOT01","LB","CDISC009",67,"PROT","Protein","CHEMISTRY","6.4","g/dL","6","8","64",64,"g/L",60,80,"NORMAL","",4,"WEEK 2","TREATMENT","2012-11-05T11:15",15],
["CDISCPILOT01","LB","CDISC009",70,"URATE","Urate","CHEMISTRY","5.0","mg/dL","2.5","7.5","297.4",297.4,"umol/L",149,446,"NORMAL","",4,"WEEK 2","TREATMENT","2012-11-05T11:15",15],
["CDISCPILOT01","LB","CDISC009",73,"ALB","Albumin","CHEMISTRY","3.8","g/dL","3.5","4.6","38",38,"g/L",35,46,"NORMAL","",5,"WEEK 4","TREATMENT","2012-11-20T13:00",30],
["CDISCPILOT01","LB","CDISC009",74,"ALP","Alkaline Phosphatase","CHEMISTRY","76","U/L","35","115","76",76,"U/L",35,115,"NORMAL","",5,"WEEK 4","TREATMENT","2012-11-20T13:00",30],
["CDISCPILOT01","LB","CDISC009",75,"ALT","Alanine Aminotransferase","CHEMISTRY","14","U/L","6","32","14",14,"U/L",6,32,"NORMAL","",5,"WEEK 4","TREATMENT","2012-11-20T13:00",30],
["CDISCPILOT01","LB","CDISC009",76,"AST","Aspartate Aminotransferase","CHEMISTRY","14","U/L","9","34","14",14,"U/L",9,34,"NORMAL","",5,"WEEK 4","TREATMENT","2012-11-20T13:00",30],
["CDISCPILOT01","LB","CDISC009",78,"BILI","Bilirubin","CHEMISTRY","0.5","mg/dL","0.2","1.2","8.55",8.55,"umol/L",3,21,"NORMAL","",5,"WEEK 4","TREATMENT","2012-11-20T13:00",30],
["CDISCPILOT01","LB","CDISC009",79,"UREAN","Urea Nitrogen","CHEMISTRY","11","mg/dL","4","24","3.927",3.927,"mmol/L",1.4,8.6,"NORMAL","",5,"WEEK 4","TREATMENT","2012-11-20T13:00",30],
["CDISCPILOT01","LB","CDISC009",80,"CA","Calcium","CHEMISTRY","8.7","mg/dL","8.4","10.3","2.17065",2.17065,"mmol/L",2.1,2.57,"NORMAL","",5,"WEEK 4","TREATMENT","2012-11-20T13:00",30],
["CDISCPILOT01","LB","CDISC009",81,"CHOL","Cholesterol","CHEMISTRY","237","mg/dL","156","300","6.12882",6.12882,"mmol/L",4.03,7.76,"NORMAL","",5,"WEEK 4","TREATMENT","2012-11-20T13:00",30],
["CDISCPILOT01","LB","CDISC009",82,"CK","Creatine Kinase","CHEMISTRY","37","U/L","21","169","37",37,"U/L",21,169,"NORMAL","",5,"WEEK 4","TREATMENT","2012-11-20T13:00",30],
["CDISCPILOT01","LB","CDISC009",83,"CL","Chloride","CHEMISTRY","105","mEq/L","94","112","105",105,"mmol/L",94,112,"NORMAL","",5,"WEEK 4","TREATMENT","2012-11-20T13:00",30],
["CDISCPILOT01","LB","CDISC009",84,"CREAT","Creatinine","CHEMISTRY","0.9","mg/dL","0.7","1.4","79.56",79.56,"umol/L",62,124,"NORMAL","",5,"WEEK 4","TREATMENT","2012-11-20T13:00",30],
["CDISCPILOT01","LB","CDISC009",86,"GGT","Gamma Glutamyl Transferase","CHEMISTRY","12","U/L","5","50","12",12,"U/L",5,50,"NORMAL","",5,"WEEK 4","TREATMENT","2012-11-20T13:00",30],
["CDISCPILOT01","LB","CDISC009",87,"GLUC","Glucose","CHEMISTRY","83","mg/dL","50","250","4.60733",4.60733,"mmol/L",2.8,13.9,"NORMAL","",5,"WEEK 4","TREATMENT","2012-11-20T13:00",30],
["CDISCPILOT01","LB","CDISC009",90,"K","Potassium","CHEMISTRY","3.9","mEq/L","3.4","5.4","3.9",3.9,"mmol/L",3.4,5.4,"NORMAL","",5,"WEEK 4","TREATMENT","2012-11-20T13:00",30],
["CDISCPILOT01","LB","CDISC009",96,"SODIUM","Sodium","CHEMISTRY","139","mEq/L","135","145","139",139,"mmol/L",135,145,"NORMAL","",5,"WEEK 4","TREATMENT","2012-11-20T13:00",30],
["CDISCPILOT01","LB","CDISC009",97,"PHOS","Phosphate","CHEMISTRY","3.0","mg/dL","2.2","5.1","0.9687",0.9687,"mmol/L",0.71,1.65,"NORMAL","",5,"WEEK 4","TREATMENT","2012-11-20T13:00",30],
["CDISCPILOT01","LB","CDISC009",99,"PROT","Protein","CHEMISTRY","7.1","g/dL","6","8","71",71,"g/L",60,80,"NORMAL","",5,"WEEK 4","TREATMENT","2012-11-20T13:00",30],
["CDISCPILOT01","LB","CDISC009",101,"URATE","Urate","CHEMISTRY","5.0","mg/dL","2.5","7.5","297.4",297.4,"umol/L",149,446,"NORMAL","",5,"WEEK 4","TREATMENT","2012-11-20T13:00",30],
["CDISCPILOT01","LB","CDISC009",103,"ALB","Albumin","CHEMISTRY","3.8","g/dL","3.5","4.6","38",38,"g/L",35,46,"NORMAL","",7,"WEEK 6","TREATMENT","2012-12-08T11:00",48],
["CDISCPILOT01","LB","CDISC009",104,"ALP","Alkaline Phosphatase","CHEMISTRY","74","U/L","35","115","74",74,"U/L",35,115,"NORMAL","",7,"WEEK 6","TREATMENT","2012-12-08T11:00",48],
["CDISCPILOT01","LB","CDISC009",105,"ALT","Alanine Aminotransferase","CHEMISTRY","13","U/L","6","32","13",13,"U/L",6,32,"NORMAL","",7,"WEEK 6","TREATMENT","2012-12-08T11:00",48],
["CDISCPILOT01","LB","CDISC009",106,"AST","Aspartate Aminotransferase","CHEMISTRY","14","U/L","9","34","14",14,"U/L",9,34,"NORMAL","",7,"WEEK 6","TREATMENT","2012-12-08T11:00",48],
["CDISCPILOT01","LB","CDISC009",108,"BILI","Bilirubin","CHEMISTRY","0.5","mg/dL","0.2","1.2","8.55",8.55,"umol/L",3,21,"NORMAL","",7,"WEEK 6","TREATMENT","2012-12-08T11:00",48],
["CDISCPILOT01","LB","CDISC009",109,"UREAN","Urea Nitrogen","CHEMISTRY","14","mg/dL","4","24","4.998",4.998,"mmol/L",1.4,8.6,"NORMAL","",7,"WEEK 6","TREATMENT","2012-12-08T11:00",48],
["CDISCPILOT01","LB","CDISC009",110,"CA","Calcium","CHEMISTRY","9.1","mg/dL","8.4","10.3","2.27045",2.27045,"mmol/L",2.1,2.57,"NORMAL","",7,"WEEK 6","TREATMENT","2012-12-08T11:00",48],
["CDISCPILOT01","LB","CDISC009",111,"CHOL","Cholesterol","CHEMISTRY","231","mg/dL","156","300","5.97366",5.97366,"mmol/L",4.03,7.76,"NORMAL","",7,"WEEK 6","TREATMENT","2012-12-08T11:00",48],
["CDISCPILOT01","LB","CDISC009",112,"CK","Creatine Kinase","CHEMISTRY","42","U/L","21","169","42",42,"U/L",21,169,"NORMAL","",7,"WEEK 6","TREATMENT","2012-12-08T11:00",48],
["CDISCPILOT01","LB","CDISC009",113,"CL","Chloride","CHEMISTRY","108","mEq/L","94","112","108",108,"mmol/L",94,112,"NORMAL","",7,"WEEK 6","TREATMENT","2012-12-08T11:00",48],
["CDISCPILOT01","LB","CDISC009",114,"CREAT","Creatinine","CHEMISTRY","0.9","mg/dL","0.7","1.4","79.56",79.56,"umol/L",62,124,"NORMAL","",7,"WEEK 6","TREATMENT","2012-12-08T11:00",48],
["CDISCPILOT01","LB","CDISC009",116,"GGT","Gamma Glutamyl Transferase","CHEMISTRY","15","U/L","5","50","15",15,"U/L",5,50,"NORMAL","",7,"WEEK 6","TREATMENT","2012-12-08T11:00",48],
["CDISCPILOT01","LB","CDISC009",117,"GLUC","Glucose","CHEMISTRY","95","mg/dL","50","250","5.27345",5.27345,"mmol/L",2.8,13.9,"NORMAL","",7,"WEEK 6","TREATMENT","2012-12-08T11:00",48],
["CDISCPILOT01","LB","CDISC009",120,"K","Potassium","CHEMISTRY","3.7","mEq/L","3.4","5.4","3.7",3.7,"mmol/L",3.4,5.4,"NORMAL","",7,"WEEK 6","TREATMENT","2012-12-08T11:00",48],
["CDISCPILOT01","LB","CDISC009",126,"SODIUM","Sodium","CHEMISTRY","140","mEq/L","135","145","140",140,"mmol/L",135,145,"NORMAL","",7,"WEEK 6","TREATMENT","2012-12-08T11:00",48],
["CDISCPILOT01","LB","CDISC009",127,"PHOS","Phosphate","CHEMISTRY","4.3","mg/dL","2.2","5.1","1.38847",1.38847,"mmol/L",0.71,1.65,"NORMAL","",7,"WEEK 6","TREATMENT","2012-12-08T11:00",48],
["CDISCPILOT01","LB","CDISC009",129,"PROT","Protein","CHEMISTRY","6.6","g/dL","6","8","66",66,"g/L",60,80,"NORMAL","",7,"WEEK 6","TREATMENT","2012-12-08T11:00",48],
["CDISCPILOT01","LB","CDISC009",131,"URATE","Urate","CHEMISTRY","4.6","mg/dL","2.5","7.5","273.608",273.608,"umol/L",149,446,"NORMAL","",7,"WEEK 6","TREATMENT","2012-12-08T11:00",48],
["CDISCPILOT01","LB","CDISC009",133,"ALB","Albumin","CHEMISTRY","3.5","g/dL","3.5","4.6","35",35,"g/L",35,46,"NORMAL","",8,"WEEK 8","TREATMENT","2012-12-22T10:40",62],
["CDISCPILOT01","LB","CDISC009",134,"ALP","Alkaline Phosphatase","CHEMISTRY","65","U/L","35","115","65",65,"U/L",35,115,"NORMAL","",8,"WEEK 8","TREATMENT","2012-12-22T10:40",62],
["CDISCPILOT01","LB","CDISC009",135,"ALT","Alanine Aminotransferase","CHEMISTRY","10","U/L","6","32","10",10,"U/L",6,32,"NORMAL","",8,"WEEK 8","TREATMENT","2012-12-22T10:40",62],
["CDISCPILOT01","LB","CDISC009",136,"AST","Aspartate Aminotransferase","CHEMISTRY","9","U/L","9","34","9",9,"U/L",9,34,"NORMAL","",8,"WEEK 8","TREATMENT","2012-12-22T10:40",62],
["CDISCPILOT01","LB","CDISC009",138,"BILI","Bilirubin","CHEMISTRY","0.4","mg/dL","0.2","1.2","6.84",6.84,"umol/L",3,21,"NORMAL","",8,"WEEK 8","TREATMENT","2012-12-22T10:40",62],
["CDISCPILOT01","LB","CDISC009",139,"UREAN","Urea Nitrogen","CHEMISTRY","11","mg/dL","4","24","3.927",3.927,"mmol/L",1.4,8.6,"NORMAL","",8,"WEEK 8","TREATMENT","2012-12-22T10:40",62],
["CDISCPILOT01","LB","CDISC009",140,"CA","Calcium","CHEMISTRY","8.8","mg/dL","8.4","10.3","2.1956",2.1956,"mmol/L",2.1,2.57,"NORMAL","",8,"WEEK 8","TREATMENT","2012-12-22T10:40",62],
["CDISCPILOT01","LB","CDISC009",141,"CHOL","Cholesterol","CHEMISTRY","212","mg/dL","156","300","5.48232",5.48232,"mmol/L",4.03,7.76,"NORMAL","",8,"WEEK 8","TREATMENT","2012-12-22T10:40",62],
["CDISCPILOT01","LB","CDISC009",142,"CK","Creatine Kinase","CHEMISTRY","40","U/L","21","169","40",40,"U/L",21,169,"NORMAL","",8,"WEEK 8","TREATMENT","2012-12-22T10:40",62],
["CDISCPILOT01","LB","CDISC009",143,"CL","Chloride","CHEMISTRY","107","mEq/L","94","112","107",107,"mmol/L",94,112,"NORMAL","",8,"WEEK 8","TREATMENT","2012-12-22T10:40",62],
["CDISCPILOT01","LB","CDISC009",144,"CREAT","Creatinine","CHEMISTRY","0.9","mg/dL","0.7","1.4","79.56",79.56,"umol/L",62,124,"NORMAL","",8,"WEEK 8","TREATMENT","2012-12-22T10:40",62],
["CDISCPILOT01","LB","CDISC009",146,"GGT","Gamma Glutamyl Transferase","CHEMISTRY","11","U/L","5","50","11",11,"U/L",5,50,"NORMAL","",8,"WEEK 8","TREATMENT","2012-12-22T10:40",62],
["CDISCPILOT01","LB","CDISC009",147,"GLUC","Glucose","CHEMISTRY","91","mg/dL","50","250","5.05141",5.05141,"mmol/L",2.8,13.9,"NORMAL","",8,"WEEK 8","TREATMENT","2012-12-22T10:40",62],
["CDISCPILOT01","LB","CDISC009",150,"K","Potassium","CHEMISTRY","3.6","mEq/L","3.4","5.4","3.6",3.6,"mmol/L",3.4,5.4,"NORMAL","",8,"WEEK 8","TREATMENT","2012-12-22T10:40",62],
["CDISCPILOT01","LB","CDISC009",156,"SODIUM","Sodium","CHEMISTRY","138","mEq/L","135","145","138",138,"mmol/L",135,145,"NORMAL","",8,"WEEK 8","TREATMENT","2012-12-22T10:40",62],
["CDISCPILOT01","LB","CDISC009",157,"PHOS","Phosphate","CHEMISTRY","2.8","mg/dL","2.2","5.1","0.90412",0.90412,"mmol/L",0.71,1.65,"NORMAL","",8,"WEEK 8","TREATMENT","2012-12-22T10:40",62],
["CDISCPILOT01","LB","CDISC009",159,"PROT","Protein","CHEMISTRY","6.4","g/dL","6","8","64",64,"g/L",60,80,"NORMAL","",8,"WEEK 8","TREATMENT","2012-12-22T10:40",62],
["CDISCPILOT01","LB","CDISC009",161,"URATE","Urate","CHEMISTRY","5.1","mg/dL","2.5","7.5","303.348",303.348,"umol/L",149,446,"NORMAL","",8,"WEEK 8","TREATMENT","2012-12-22T10:40",62],
["CDISCPILOT01","LB","CDISC009",163,"ALB","Albumin","CHEMISTRY","3.7","g/dL","3.5","4.6","37",37,"g/L",35,46,"NORMAL","",9,"WEEK 12","TREATMENT","2013-01-19T15:15",90],
["CDISCPILOT01","LB","CDISC009",164,"ALP","Alkaline Phosphatase","CHEMISTRY","68","U/L","35","115","68",68,"U/L",35,115,"NORMAL","",9,"WEEK 12","TREATMENT","2013-01-19T15:15",90],
["CDISCPILOT01","LB","CDISC009",165,"ALT","Alanine Aminotransferase","CHEMISTRY","11","U/L","6","32","11",11,"U/L",6,32,"NORMAL","",9,"WEEK 12","TREATMENT","2013-01-19T15:15",90],
["CDISCPILOT01","LB","CDISC009",166,"AST","Aspartate Aminotransferase","CHEMISTRY","13","U/L","9","34","13",13,"U/L",9,34,"NORMAL","",9,"WEEK 12","TREATMENT","2013-01-19T15:15",90],
["CDISCPILOT01","LB","CDISC009",168,"BILI","Bilirubin","CHEMISTRY","0.5","mg/dL","0.2","1.2","8.55",8.55,"umol/L",3,21,"NORMAL","",9,"WEEK 12","TREATMENT","2013-01-19T15:15",90],
["CDISCPILOT01","LB","CDISC009",169,"UREAN","Urea Nitrogen","CHEMISTRY","10","mg/dL","4","24","3.57",3.57,"mmol/L",1.4,8.6,"NORMAL","",9,"WEEK 12","TREATMENT","2013-01-19T15:15",90],
["CDISCPILOT01","LB","CDISC009",170,"CA","Calcium","CHEMISTRY","8.9","mg/dL","8.4","10.3","2.22055",2.22055,"mmol/L",2.1,2.57,"NORMAL","",9,"WEEK 12","TREATMENT","2013-01-19T15:15",90],
["CDISCPILOT01","LB","CDISC009",171,"CHOL","Cholesterol","CHEMISTRY","209","mg/dL","156","300","5.40474",5.40474,"mmol/L",4.03,7.76,"NORMAL","",9,"WEEK 12","TREATMENT","2013-01-19T15:15",90],
["CDISCPILOT01","LB","CDISC009",172,"CK","Creatine Kinase","CHEMISTRY","47","U/L","21","169","47",47,"U/L",21,169,"NORMAL","",9,"WEEK 12","TREATMENT","2013-01-19T15:15",90],
["CDISCPILOT01","LB","CDISC009",173,"CL","Chloride","CHEMISTRY","105","mEq/L","94","112","105",105,"mmol/L",94,112,"NORMAL","",9,"WEEK 12","TREATMENT","2013-01-19T15:15",90],
["CDISCPILOT01","LB","CDISC009",175,"CREAT","Creatinine","CHEMISTRY","0.9","mg/dL","0.7","1.4","79.56",79.56,"umol/L",62,124,"NORMAL","",9,"WEEK 12","TREATMENT","2013-01-19T15:15",90],
["CDISCPILOT01","LB","CDISC009",177,"GGT","Gamma Glutamyl Transferase","CHEMISTRY","17","U/L","5","50","17",17,"U/L",5,50,"NORMAL","",9,"WEEK 12","TREATMENT","2013-01-19T15:15",90],
["CDISCPILOT01","LB","CDISC009",178,"GLUC","Glucose","CHEMISTRY","111","mg/dL","50","250","6.16161",6.16161,"mmol/L",2.8,13.9,"NORMAL","",9,"WEEK 12","TREATMENT","2013-01-19T15:15",90],
["CDISCPILOT01","LB","CDISC009",181,"K","Potassium","CHEMISTRY","3.7","mEq/L","3.4","5.4","3.7",3.7,"mmol/L",3.4,5.4,"NORMAL","",9,"WEEK 12","TREATMENT","2013-01-19T15:15",90],
["CDISCPILOT01","LB","CDISC009",188,"SODIUM","Sodium","CHEMISTRY","136","mEq/L","135","145","136",136,"mmol/L",135,145,"NORMAL","",9,"WEEK 12","TREATMENT","2013-01-19T15:15",90],
["CDISCPILOT01","LB","CDISC009",190,"PHOS","Phosphate","CHEMISTRY","2.6","mg/dL","2.2","5.1","0.83954",0.83954,"mmol/L",0.71,1.65,"NORMAL","",9,"WEEK 12","TREATMENT","2013-01-19T15:15",90],
["CDISCPILOT01","LB","CDISC009",192,"PROT","Protein","CHEMISTRY","7.0","g/dL","6","8","70",70,"g/L",60,80,"NORMAL","",9,"WEEK 12","TREATMENT","2013-01-19T15:15",90],
["CDISCPILOT01","LB","CDISC009",195,"URATE","Urate","CHEMISTRY","5.1","mg/dL","2.5","7.5","303.348",303.348,"umol/L",149,446,"NORMAL","",9,"WEEK 12","TREATMENT","2013-01-19T15:15",90],
["CDISCPILOT01","LB","CDISC009",198,"ALB","Albumin","CHEMISTRY","4.4","g/dL","3.5","4.6","44",44,"g/L",35,46,"NORMAL","",10,"WEEK 16","TREATMENT","2013-02-16T13:15",118],
["CDISCPILOT01","LB","CDISC009",199,"ALP","Alkaline Phosphatase","CHEMISTRY","69","U/L","35","115","69",69,"U/L",35,115,"NORMAL","",10,"WEEK 16","TREATMENT","2013-02-16T13:15",118],
["CDISCPILOT01","LB","CDISC009",200,"ALT","Alanine Aminotransferase","CHEMISTRY","13","U/L","6","32","13",13,"U/L",6,32,"NORMAL","",10,"WEEK 16","TREATMENT","2013-02-16T13:15",118],
["CDISCPILOT01","LB","CDISC009",202,"AST","Aspartate Aminotransferase","CHEMISTRY","14","U/L","9","34","14",14,"U/L",9,34,"NORMAL","",10,"WEEK 16","TREATMENT","2013-02-16T13:15",118],
["CDISCPILOT01","LB","CDISC009",204,"BILI","Bilirubin","CHEMISTRY","0.4","mg/dL","0.2","1.2","6.84",6.84,"umol/L",3,21,"NORMAL","",10,"WEEK 16","TREATMENT","2013-02-16T13:15",118],
["CDISCPILOT01","LB","CDISC009",205,"UREAN","Urea Nitrogen","CHEMISTRY","11","mg/dL","4","24","3.927",3.927,"mmol/L",1.4,8.6,"NORMAL","",10,"WEEK 16","TREATMENT","2013-02-16T13:15",118],
["CDISCPILOT01","LB","CDISC009",206,"CA","Calcium","CHEMISTRY","9.0","mg/dL","8.4","10.3","2.2455",2.2455,"mmol/L",2.1,2.57,"NORMAL","",10,"WEEK 16","TREATMENT","2013-02-16T13:15",118],
["CDISCPILOT01","LB","CDISC009",207,"CHOL","Cholesterol","CHEMISTRY","237","mg/dL","156","300","6.12882",6.12882,"mmol/L",4.03,7.76,"NORMAL","",10,"WEEK 16","TREATMENT","2013-02-16T13:15",118],
["CDISCPILOT01","LB","CDISC009",208,"CK","Creatine Kinase","CHEMISTRY","46","U/L","21","169","46",46,"U/L",21,169,"NORMAL","",10,"WEEK 16","TREATMENT","2013-02-16T13:15",118],
["CDISCPILOT01","LB","CDISC009",209,"CL","Chloride","CHEMISTRY","108","mEq/L","94","112","108",108,"mmol/L",94,112,"NORMAL","",10,"WEEK 16","TREATMENT","2013-02-16T13:15",118],
["CDISCPILOT01","LB","CDISC009",210,"CREAT","Creatinine","CHEMISTRY","0.8","mg/dL","0.7","1.4","70.72",70.72,"umol/L",62,124,"NORMAL","",10,"WEEK 16","TREATMENT","2013-02-16T13:15",118],
["CDISCPILOT01","LB","CDISC009",212,"GGT","Gamma Glutamyl Transferase","CHEMISTRY","18","U/L","5","50","18",18,"U/L",5,50,"NORMAL","",10,"WEEK 16","TREATMENT","2013-02-16T13:15",118],
["CDISCPILOT01","LB","CDISC009",213,"GLUC","Glucose","CHEMISTRY","82","mg/dL","50","250","4.55182",4.55182,"mmol/L",2.8,13.9,"NORMAL","",10,"WEEK 16","TREATMENT","2013-02-16T13:15",118],
["CDISCPILOT01","LB","CDISC009",216,"K","Potassium","CHEMISTRY","3.8","mEq/L","3.4","5.4","3.8",3.8,"mmol/L",3.4,5.4,"NORMAL","",10,"WEEK 16","TREATMENT","2013-02-16T13:15",118],
["CDISCPILOT01","LB","CDISC009",222,"SODIUM","Sodium","CHEMISTRY","140","mEq/L","135","145","140",140,"mmol/L",135,145,"NORMAL","",10,"WEEK 16","TREATMENT","2013-02-16T13:15",118],
["CDISCPILOT01","LB","CDISC009",223,"PHOS","Phosphate","CHEMISTRY","2.7","mg/dL","2.2","5.1","0.87183",0.87183,"mmol/L",0.71,1.65,"NORMAL","",10,"WEEK 16","TREATMENT","2013-02-16T13:15",118],
["CDISCPILOT01","LB","CDISC009",225,"PROT","Protein","CHEMISTRY","7.6","g/dL","6","8","76",76,"g/L",60,80,"NORMAL","",10,"WEEK 16","TREATMENT","2013-02-16T13:15",118],
["CDISCPILOT01","LB","CDISC009",227,"URATE","Urate","CHEMISTRY","4.5","mg/dL","2.5","7.5","267.66",267.66,"umol/L",149,446,"NORMAL","",10,"WEEK 16","TREATMENT","2013-02-16T13:15",118],
["CDISCPILOT01","LB","CDISC009",229,"ALB","Albumin","CHEMISTRY","3.6","g/dL","3.5","4.6","36",36,"g/L",35,46,"NORMAL","",11,"WEEK 20","TREATMENT","2013-03-16T08:50",146],
["CDISCPILOT01","LB","CDISC009",230,"ALP","Alkaline Phosphatase","CHEMISTRY","58","U/L","35","115","58",58,"U/L",35,115,"NORMAL","",11,"WEEK 20","TREATMENT","2013-03-16T08:50",146],
["CDISCPILOT01","LB","CDISC009",231,"ALT","Alanine Aminotransferase","CHEMISTRY","9","U/L","6","32","9",9,"U/L",6,32,"NORMAL","",11,"WEEK 20","TREATMENT","2013-03-16T08:50",146],
["CDISCPILOT01","LB","CDISC009",232,"AST","Aspartate Aminotransferase","CHEMISTRY","12","U/L","9","34","12",12,"U/L",9,34,"NORMAL","",11,"WEEK 20","TREATMENT","2013-03-16T08:50",146],
["CDISCPILOT01","LB","CDISC009",234,"BILI","Bilirubin","CHEMISTRY","0.4","mg/dL","0.2","1.2","6.84",6.84,"umol/L",3,21,"NORMAL","",11,"WEEK 20","TREATMENT","2013-03-16T08:50",146],
["CDISCPILOT01","LB","CDISC009",235,"UREAN","Urea Nitrogen","CHEMISTRY","14","mg/dL","4","24","4.998",4.998,"mmol/L",1.4,8.6,"NORMAL","",11,"WEEK 20","TREATMENT","2013-03-16T08:50",146],
["CDISCPILOT01","LB","CDISC009",236,"CA","Calcium","CHEMISTRY","8.6","mg/dL","8.4","10.3","2.1457",2.1457,"mmol/L",2.1,2.57,"NORMAL","",11,"WEEK 20","TREATMENT","2013-03-16T08:50",146],
["CDISCPILOT01","LB","CDISC009",237,"CHOL","Cholesterol","CHEMISTRY","182","mg/dL","156","300","4.70652",4.70652,"mmol/L",4.03,7.76,"NORMAL","",11,"WEEK 20","TREATMENT","2013-03-16T08:50",146],
["CDISCPILOT01","LB","CDISC009",238,"CK","Creatine Kinase","CHEMISTRY","31","U/L","21","169","31",31,"U/L",21,169,"NORMAL","",11,"WEEK 20","TREATMENT","2013-03-16T08:50",146],
["CDISCPILOT01","LB","CDISC009",239,"CL","Chloride","CHEMISTRY","107","mEq/L","94","112","107",107,"mmol/L",94,112,"NORMAL","",11,"WEEK 20","TREATMENT","2013-03-16T08:50",146],
["CDISCPILOT01","LB","CDISC009",240,"CREAT","Creatinine","CHEMISTRY","0.8","mg/dL","0.7","1.4","70.72",70.72,"umol/L",62,124,"NORMAL","",11,"WEEK 20","TREATMENT","2013-03-16T08:50",146],
["CDISCPILOT01","LB","CDISC009",242,"GGT","Gamma Glutamyl Transferase","CHEMISTRY","18","U/L","5","50","18",18,"U/L",5,50,"NORMAL","",11,"WEEK 20","TREATMENT","2013-03-16T08:50",146],
["CDISCPILOT01","LB","CDISC009",243,"GLUC","Glucose","CHEMISTRY","93","mg/dL","50","250","5.16243",5.16243,"mmol/L",2.8,13.9,"NORMAL","",11,"WEEK 20","TREATMENT","2013-03-16T08:50",146],
["CDISCPILOT01","LB","CDISC009",246,"K","Potassium","CHEMISTRY","3.4","mEq/L","3.4","5.4","3.4",3.4,"mmol/L",3.4,5.4,"NORMAL","",11,"WEEK 20","TREATMENT","2013-03-16T08:50",146],
["CDISCPILOT01","LB","CDISC009",252,"SODIUM","Sodium","CHEMISTRY","141","mEq/L","135","145","141",141,"mmol/L",135,145,"NORMAL","",11,"WEEK 20","TREATMENT","2013-03-16T08:50",146],
["CDISCPILOT01","LB","CDISC009",253,"PHOS","Phosphate","CHEMISTRY","2.5","mg/dL","2.2","5.1","0.80725",0.80725,"mmol/L",0.71,1.65,"NORMAL","",11,"WEEK 20","TREATMENT","2013-03-16T08:50",146],
["CDISCPILOT01","LB","CDISC009",255,"PROT","Protein","CHEMISTRY","6.4","g/dL","6","8","64",64,"g/L",60,80,"NORMAL","",11,"WEEK 20","TREATMENT","2013-03-16T08:50",146],
["CDISCPILOT01","LB","CDISC009",257,"URATE","Urate","CHEMISTRY","5.2","mg/dL","2.5","7.5","309.296",309.296,"umol/L",149,446,"NORMAL","",11,"WEEK 20","TREATMENT","2013-03-16T08:50",146],
["CDISCPILOT01","LB","CDISC009",259,"ALB","Albumin","CHEMISTRY","4.3","g/dL","3.5","4.6","43",43,"g/L",35,46,"NORMAL","",12,"WEEK 24","TREATMENT","2013-04-10T12:30",171],
["CDISCPILOT01","LB","CDISC009",260,"ALP","Alkaline Phosphatase","CHEMISTRY","69","U/L","35","115","69",69,"U/L",35,115,"NORMAL","",12,"WEEK 24","TREATMENT","2013-04-10T12:30",171],
["CDISCPILOT01","LB","CDISC009",261,"ALT","Alanine Aminotransferase","CHEMISTRY","13","U/L","6","32","13",13,"U/L",6,32,"NORMAL","",12,"WEEK 24","TREATMENT","2013-04-10T12:30",171],
["CDISCPILOT01","LB","CDISC009",262,"AST","Aspartate Aminotransferase","CHEMISTRY","17","U/L","9","34","17",17,"U/L",9,34,"NORMAL","",12,"WEEK 24","TREATMENT","2013-04-10T12:30",171],
["CDISCPILOT01","LB","CDISC009",264,"BILI","Bilirubin","CHEMISTRY","0.7","mg/dL","0.2","1.2","11.97",11.97,"umol/L",3,21,"NORMAL","",12,"WEEK 24","TREATMENT","2013-04-10T12:30",171],
["CDISCPILOT01","LB","CDISC009",265,"UREAN","Urea Nitrogen","CHEMISTRY","13","mg/dL","4","24","4.641",4.641,"mmol/L",1.4,8.6,"NORMAL","",12,"WEEK 24","TREATMENT","2013-04-10T12:30",171],
["CDISCPILOT01","LB","CDISC009",266,"CA","Calcium","CHEMISTRY","8.8","mg/dL","8.4","10.3","2.1956",2.1956,"mmol/L",2.1,2.57,"NORMAL","",12,"WEEK 24","TREATMENT","2013-04-10T12:30",171],
["CDISCPILOT01","LB","CDISC009",267,"CHOL","Cholesterol","CHEMISTRY","260","mg/dL","156","300","6.7236",6.7236,"mmol/L",4.03,7.76,"NORMAL","",12,"WEEK 24","TREATMENT","2013-04-10T12:30",171],
["CDISCPILOT01","LB","CDISC009",268,"CK","Creatine Kinase","CHEMISTRY","47","U/L","21","169","47",47,"U/L",21,169,"NORMAL","",12,"WEEK 24","TREATMENT","2013-04-10T12:30",171],
["CDISCPILOT01","LB","CDISC009",269,"CL","Chloride","CHEMISTRY","107","mEq/L","94","112","107",107,"mmol/L",94,112,"NORMAL","",12,"WEEK 24","TREATMENT","2013-04-10T12:30",171],
["CDISCPILOT01","LB","CDISC009",271,"CREAT","Creatinine","CHEMISTRY","0.9","mg/dL","0.7","1.4","79.56",79.56,"umol/L",62,124,"NORMAL","",12,"WEEK 24","TREATMENT","2013-04-10T12:30",171],
