{
  "clinicalData":{"studyOID":"cdisc.com/CDISCPILOT01","metaDataVersionOID":"MDV.MSGv2.0.SDTMIG.3.3.SDTM.1.7","itemGroupData": {"IG.LB":{"records":1275,"name":"LB","label":"Laboratory Test Results","items":[{"OID": "IT.LB.STUDYID", "name":"STUDYID", "label":"Study Identifier", "type":"string"},{"OID": "IT.LB.DOMAIN", "name":"DOMAIN", "label":"Domain Abbreviation", "type":"string"},{"OID": "IT.LB.USUBJID", "name":"USUBJID", "label":"Unique Subject Identifier", "type":"string"},{"OID": "IT.LB.LBSEQ", "name":"LBSEQ", "label":"Sequence Number", "type":"integer"},{"OID": "IT.LB.LBTESTCD", "name":"LBTESTCD", "label":"Lab Test or Examination Short Name", "type":"string"},{"OID": "IT.LB.LBTEST", "name":"LBTEST", "label":"Lab Test or Examination Name", "type":"string"},{"OID": "IT.LB.LBCAT", "name":"LBCAT", "label":"Category for Lab Test", "type":"string"},{"OID": "IT.LB.LBORRES", "name":"LBORRES", "label":"Result or Finding in Original Units", "type":"string"},{"OID": "IT.LB.LBORRESU", "name":"LBORRESU", "label":"Original Units", "type":"string"},{"OID": "IT.LB.LBORNRLO", "name":"LBORNRLO", "label":"Reference Range Lower Limit in Orig Unit", "type":"string"},{"OID": "IT.LB.LBORNRHI", "name":"LBORNRHI", "label":"Reference Range Upper Limit in Orig Unit", "type":"string"},{"OID": "IT.LB.LBSTRESC", "name":"LBSTRESC", "label":"Character Result/Finding in Std Format", "type":"string"},{"OID": "IT.LB.LBSTRESN", "name":"LBSTRESN", "label":"Numeric Result/Finding in Standard Units", "type":"float"},{"OID": "IT.LB.LBSTRESU", "name":"LBSTRESU", "label":"Standard Units", "type":"string"},{"OID": "IT.LB.LBSTNRLO", "name":"LBSTNRLO", "label":"Reference Range Lower Limit-Std Units", "type":"float"},{"OID": "IT.LB.LBSTNRHI", "name":"LBSTNRHI", "label":"Reference Range Upper Limit-Std Units", "type":"float"},{"OID": "IT.LB.LBNRIND", "name":"LBNRIND", "label":"Reference Range Indicator", "type":"string"},{"OID": "IT.LB.LBLOBXFL", "name":"LBLOBXFL", "label":"Last Observation Before Exposure Flag", "type":"string"},{"OID": "IT.LB.VISITNUM", "name":"VISITNUM", "label":"Visit Number", "type":"float"},{"OID": "IT.LB.VISIT", "name":"VISIT", "label":"Visit Name", "type":"string"},{"OID": "IT.LB.EPOCH", "name":"EPOCH", "label":"Epoch", "type":"string"},{"OID": "IT.LB.LBDTC", "name":"LBDTC", "label":"Date/Time of Specimen Collection", "type":"string"},{"OID": "IT.LB.LBDY", "name":"LBDY", "label":"Study Day of Specimen Collection", "type":"integer"}],"itemData": [
["CDISCPILOT01","LB","CDISC001",5,"BASO","Basophils","HEMATOLOGY","0.03","10^9/L","0","0.2","0.03",0.03,"10^9/L",0,0.2,"NORMAL","Y",1,"SCREENING 1","SCREENING","2012-11-23T11:20",-7],
["CDISCPILOT01","LB","CDISC001",14,"EOS","Eosinophils","HEMATOLOGY","0.08","10^9/L","0","0.57","0.08",0.08,"10^9/L",0,0.57,"NORMAL","Y",1,"SCREENING 1","SCREENING","2012-11-23T11:20",-7],
["CDISCPILOT01","LB","CDISC001",17,"HCT","Hematocrit","HEMATOLOGY","46.0","%","37","51","0.46",0.46,"",0.37,0.51,"NORMAL","Y",1,"SCREENING 1","SCREENING","2012-11-23T11:20",-7],
["CDISCPILOT01","LB","CDISC001",18,"HGB","Hemoglobin","HEMATOLOGY","14.9","g/dL","12.5","17","9.24694",9.24694,"mmol/L",7.76,10.55,"NORMAL","Y",1,"SCREENING 1","SCREENING","2012-11-23T11:20",-7],
["CDISCPILOT01","LB","CDISC001",21,"LYM","Lymphocytes","HEMATOLOGY","1.20","10^9/L","0.8","3","1.2",1.2,"10^9/L",0.8,3,"NORMAL","Y",1,"SCREENING 1","SCREENING","2012-11-23T11:20",-7],
["CDISCPILOT01","LB","CDISC001",22,"MCH","Ery. Mean Corpuscular Hemoglobin","HEMATOLOGY","30","pg","26","34","1.8618",1.8618,"fmol",1.6,2.1,"NORMAL","Y",1,"SCREENING 1","SCREENING","2012-11-23T11:20",-7],
["CDISCPILOT01","LB","CDISC001",23,"MCHC","Ery. Mean Corpuscular HGB Concentration","HEMATOLOGY","33","g/dL","31","38","20.4798",20.4798,"mmol/L",19,24,"NORMAL","Y",1,"SCREENING 1","SCREENING","2012-11-23T11:20",-7],
["CDISCPILOT01","LB","CDISC001",24,"MCV","Ery. Mean Corpuscular Volume","HEMATOLOGY","92","fL","80","100","92",92,"fL",80,100,"NORMAL","Y",1,"SCREENING 1","SCREENING","2012-11-23T11:20",-7],
["CDISCPILOT01","LB","CDISC001",25,"MONO","Monocytes","HEMATOLOGY","0.38","10^9/L","0.12","0.92","0.38",0.38,"10^9/L",0.12,0.92,"NORMAL","Y",1,"SCREENING 1","SCREENING","2012-11-23T11:20",-7],
["CDISCPILOT01","LB","CDISC001",29,"PLAT","Platelets","HEMATOLOGY","150","10^9/L","130","394","150",150,"10^9/L",130,394,"NORMAL","Y",1,"SCREENING 1","SCREENING","2012-11-23T11:20",-7],
["CDISCPILOT01","LB","CDISC001",31,"RBC","Erythrocytes","HEMATOLOGY","5.00","10^12/L","4","5.8","5",5,"10^12/L",4,5.8,"NORMAL","Y",1,"SCREENING 1","SCREENING","2012-11-23T11:20",-7],
["CDISCPILOT01","LB","CDISC001",37,"WBC","Leukocytes","HEMATOLOGY","4.99","10^9/L","3.8","10.7","4.99",4.99,"10^9/L",3.8,10.7,"NORMAL","Y",1,"SCREENING 1","SCREENING","2012-11-23T11:20",-7],
["CDISCPILOT01","LB","CDISC001",42,"BASO","Basophils","HEMATOLOGY","0.04","10^9/L","0","0.2","0.04",0.04,"10^9/L",0,0.2,"NORMAL","",4,"WEEK 2","TREATMENT","2012-12-13T14:05",14],
["CDISCPILOT01","LB","CDISC001",51,"EOS","Eosinophils","HEMATOLOGY","0.08","10^9/L","0","0.57","0.08",0.08,"10^9/L",0,0.57,"NORMAL","",4,"WEEK 2","TREATMENT","2012-12-13T14:05",14],
["CDISCPILOT01","LB","CDISC001",54,"HCT","Hematocrit","HEMATOLOGY","45.0","%","37","51","0.45",0.45,"",0.37,0.51,"NORMAL","",4,"WEEK 2","TREATMENT","2012-12-13T14:05",14],
["CDISCPILOT01","LB","CDISC001",55,"HGB","Hemoglobin","HEMATOLOGY","14.6","g/dL","12.5","17","9.06076",9.06076,"mmol/L",7.76,10.55,"NORMAL","",4,"WEEK 2","TREATMENT","2012-12-13T14:05",14],
["CDISCPILOT01","LB","CDISC001",58,"LYM","Lymphocytes","HEMATOLOGY","1.48","10^9/L","0.8","3","1.48",1.48,"10^9/L",0.8,3,"NORMAL","",4,"WEEK 2","TREATMENT","2012-12-13T14:05",14],
["CDISCPILOT01","LB","CDISC001",59,"MCH","Ery. Mean Corpuscular Hemoglobin","HEMATOLOGY","31","pg","26","34","1.92386",1.92386,"fmol",1.6,2.1,"NORMAL","",4,"WEEK 2","TREATMENT","2012-12-13T14:05",14],
["CDISCPILOT01","LB","CDISC001",60,"MCHC","Ery. Mean Corpuscular HGB Concentration","HEMATOLOGY","33","g/dL","31","38","20.4798",20.4798,"mmol/L",19,24,"NORMAL","",4,"WEEK 2","TREATMENT","2012-12-13T14:05",14],
["CDISCPILOT01","LB","CDISC001",61,"MCV","Ery. Mean Corpuscular Volume","HEMATOLOGY","96","fL","80","100","96",96,"fL",80,100,"NORMAL","",4,"WEEK 2","TREATMENT","2012-12-13T14:05",14],
["CDISCPILOT01","LB","CDISC001",62,"MONO","Monocytes","HEMATOLOGY","0.36","10^9/L","0.12","0.92","0.36",0.36,"10^9/L",0.12,0.92,"NORMAL","",4,"WEEK 2","TREATMENT","2012-12-13T14:05",14],
["CDISCPILOT01","LB","CDISC001",66,"PLAT","Platelets","HEMATOLOGY","190","10^9/L","130","394","190",190,"10^9/L",130,394,"NORMAL","",4,"WEEK 2","TREATMENT","2012-12-13T14:05",14],
["CDISCPILOT01","LB","CDISC001",68,"RBC","Erythrocytes","HEMATOLOGY","4.70","10^12/L","4","5.8","4.7",4.7,"10^12/L",4,5.8,"NORMAL","",4,"WEEK 2","TREATMENT","2012-12-13T14:05",14],
["CDISCPILOT01","LB","CDISC001",72,"WBC","Leukocytes","HEMATOLOGY","4.44","10^9/L","3.8","10.7","4.44",4.44,"10^9/L",3.8,10.7,"NORMAL","",4,"WEEK 2","TREATMENT","2012-12-13T14:05",14],
["CDISCPILOT01","LB","CDISC001",77,"BASO","Basophils","HEMATOLOGY","0.05","10^9/L","0","0.2","0.05",0.05,"10^9/L",0,0.2,"NORMAL","",5,"WEEK 4","TREATMENT","2012-12-26T08:44",27],
["CDISCPILOT01","LB","CDISC001",85,"EOS","Eosinophils","HEMATOLOGY","0.07","10^9/L","0","0.57","0.07",0.07,"10^9/L",0,0.57,"NORMAL","",5,"WEEK 4","TREATMENT","2012-12-26T08:44",27],
["CDISCPILOT01","LB","CDISC001",88,"HCT","Hematocrit","HEMATOLOGY","45.0","%","37","51","0.45",0.45,"",0.37,0.51,"NORMAL","",5,"WEEK 4","TREATMENT","2012-12-26T08:44",27],
["CDISCPILOT01","LB","CDISC001",89,"HGB","Hemoglobin","HEMATOLOGY","14.6","g/dL","12.5","17","9.06076",9.06076,"mmol/L",7.76,10.55,"NORMAL","",5,"WEEK 4","TREATMENT","2012-12-26T08:44",27],
["CDISCPILOT01","LB","CDISC001",91,"LYM","Lymphocytes","HEMATOLOGY","1.04","10^9/L","0.8","3","1.04",1.04,"10^9/L",0.8,3,"NORMAL","",5,"WEEK 4","TREATMENT","2012-12-26T08:44",27],
["CDISCPILOT01","LB","CDISC001",92,"MCH","Ery. Mean Corpuscular Hemoglobin","HEMATOLOGY","31","pg","26","34","1.92386",1.92386,"fmol",1.6,2.1,"NORMAL","",5,"WEEK 4","TREATMENT","2012-12-26T08:44",27],
["CDISCPILOT01","LB","CDISC001",93,"MCHC","Ery. Mean Corpuscular HGB Concentration","HEMATOLOGY","33","g/dL","31","38","20.4798",20.4798,"mmol/L",19,24,"NORMAL","",5,"WEEK 4","TREATMENT","2012-12-26T08:44",27],
["CDISCPILOT01","LB","CDISC001",94,"MCV","Ery. Mean Corpuscular Volume","HEMATOLOGY","96","fL","80","100","96",96,"fL",80,100,"NORMAL","",5,"WEEK 4","TREATMENT","2012-12-26T08:44",27],
["CDISCPILOT01","LB","CDISC001",95,"MONO","Monocytes","HEMATOLOGY","0.56","10^9/L","0.12","0.92","0.56",0.56,"10^9/L",0.12,0.92,"NORMAL","",5,"WEEK 4","TREATMENT","2012-12-26T08:44",27],
["CDISCPILOT01","LB","CDISC001",98,"PLAT","Platelets","HEMATOLOGY","187","10^9/L","130","394","187",187,"10^9/L",130,394,"NORMAL","",5,"WEEK 4","TREATMENT","2012-12-26T08:44",27],
["CDISCPILOT01","LB","CDISC001",100,"RBC","Erythrocytes","HEMATOLOGY","4.70","10^12/L","4","5.8","4.7",4.7,"10^12/L",4,5.8,"NORMAL","",5,"WEEK 4","TREATMENT","2012-12-26T08:44",27],
["CDISCPILOT01","LB","CDISC001",102,"WBC","Leukocytes","HEMATOLOGY","5.40","10^9/L","3.8","10.7","5.4",5.4,"10^9/L",3.8,10.7,"NORMAL","",5,"WEEK 4","TREATMENT","2012-12-26T08:44",27],
["CDISCPILOT01","LB","CDISC001",122,"BASO","Basophils","HEMATOLOGY","0.03","10^9/L","0","0.2","0.03",0.03,"10^9/L",0,0.2,"NORMAL","",7,"WEEK 6","TREATMENT","2013-01-10T15:20",42],
["CDISCPILOT01","LB","CDISC001",130,"EOS","Eosinophils","HEMATOLOGY","0.16","10^9/L","0","0.57","0.16",0.16,"10^9/L",0,0.57,"NORMAL","",7,"WEEK 6","TREATMENT","2013-01-10T15:20",42],
["CDISCPILOT01","LB","CDISC001",133,"HCT","Hematocrit","HEMATOLOGY","45.0","%","37","51","0.45",0.45,"",0.37,0.51,"NORMAL","",7,"WEEK 6","TREATMENT","2013-01-10T15:20",42],
["CDISCPILOT01","LB","CDISC001",134,"HGB","Hemoglobin","HEMATOLOGY","14.7","g/dL","12.5","17","9.12282",9.12282,"mmol/L",7.76,10.55,"NORMAL","",7,"WEEK 6","TREATMENT","2013-01-10T15:20",42],
["CDISCPILOT01","LB","CDISC001",136,"LYM","Lymphocytes","HEMATOLOGY","1.13","10^9/L","0.8","3","1.13",1.13,"10^9/L",0.8,3,"NORMAL","",7,"WEEK 6","TREATMENT","2013-01-10T15:20",42],
["CDISCPILOT01","LB","CDISC001",137,"MCH","Ery. Mean Corpuscular Hemoglobin","HEMATOLOGY","31","pg","26","34","1.92386",1.92386,"fmol",1.6,2.1,"NORMAL","",7,"WEEK 6","TREATMENT","2013-01-10T15:20",42],
["CDISCPILOT01","LB","CDISC001",138,"MCHC","Ery. Mean Corpuscular HGB Concentration","HEMATOLOGY","33","g/dL","31","38","20.4798",20.4798,"mmol/L",19,24,"NORMAL","",7,"WEEK 6","TREATMENT","2013-01-10T15:20",42],
["CDISCPILOT01","LB","CDISC001",139,"MCV","Ery. Mean Corpuscular Volume","HEMATOLOGY","95","fL","80","100","95",95,"fL",80,100,"NORMAL","",7,"WEEK 6","TREATMENT","2013-01-10T15:20",42],
["CDISCPILOT01","LB","CDISC001",140,"MONO","Monocytes","HEMATOLOGY","0.38","10^9/L","0.12","0.92","0.38",0.38,"10^9/L",0.12,0.92,"NORMAL","",7,"WEEK 6","TREATMENT","2013-01-10T15:20",42],
["CDISCPILOT01","LB","CDISC001",143,"PLAT","Platelets","HEMATOLOGY","181","10^9/L","130","394","181",181,"10^9/L",130,394,"NORMAL","",7,"WEEK 6","TREATMENT","2013-01-10T15:20",42],
["CDISCPILOT01","LB","CDISC001",145,"RBC","Erythrocytes","HEMATOLOGY","4.70","10^12/L","4","5.8","4.7",4.7,"10^12/L",4,5.8,"NORMAL","",7,"WEEK 6","TREATMENT","2013-01-10T15:20",42],
["CDISCPILOT01","LB","CDISC001",147,"WBC","Leukocytes","HEMATOLOGY","4.52","10^9/L","3.8","10.7","4.52",4.52,"10^9/L",3.8,10.7,"NORMAL","",7,"WEEK 6","TREATMENT","2013-01-10T15:20",42],
["CDISCPILOT01","LB","CDISC001",152,"BASO","Basophils","HEMATOLOGY","0.04","10^9/L","0","0.2","0.04",0.04,"10^9/L",0,0.2,"NORMAL","",8,"WEEK 8","TREATMENT","2013-01-23T12:13",55],
["CDISCPILOT01","LB","CDISC001",161,"EOS","Eosinophils","HEMATOLOGY","0.35","10^9/L","0","0.57","0.35",0.35,"10^9/L",0,0.57,"NORMAL","",8,"WEEK 8","TREATMENT","2013-01-23T12:13",55],
["CDISCPILOT01","LB","CDISC001",164,"HCT","Hematocrit","HEMATOLOGY","45.0","%","37","51","0.45",0.45,"",0.37,0.51,"NORMAL","",8,"WEEK 8","TREATMENT","2013-01-23T12:13",55],
["CDISCPILOT01","LB","CDISC001",165,"HGB","Hemoglobin","HEMATOLOGY","15.2","g/dL","12.5","17","9.43312",9.43312,"mmol/L",7.76,10.55,"NORMAL","",8,"WEEK 8","TREATMENT","2013-01-23T12:13",55],
["CDISCPILOT01","LB","CDISC001",168,"LYM","Lymphocytes","HEMATOLOGY","1.13","10^9/L","0.8","3","1.13",1.13,"10^9/L",0.8,3,"NORMAL","",8,"WEEK 8","TREATMENT","2013-01-23T12:13",55],
["CDISCPILOT01","LB","CDISC001",169,"MCH","Ery. Mean Corpuscular Hemoglobin","HEMATOLOGY","32","pg","26","34","1.98592",1.98592,"fmol",1.6,2.1,"NORMAL","",8,"WEEK 8","TREATMENT","2013-01-23T12:13",55],
["CDISCPILOT01","LB","CDISC001",170,"MCHC","Ery. Mean Corpuscular HGB Concentration","HEMATOLOGY","34","g/dL","31","38","21.1004",21.1004,"mmol/L",19,24,"NORMAL","",8,"WEEK 8","TREATMENT","2013-01-23T12:13",55],
["CDISCPILOT01","LB","CDISC001",171,"MCV","Ery. Mean Corpuscular Volume","HEMATOLOGY","94","fL","80","100","94",94,"fL",80,100,"NORMAL","",8,"WEEK 8","TREATMENT","2013-01-23T12:13",55],
["CDISCPILOT01","LB","CDISC001",172,"MONO","Monocytes","HEMATOLOGY","0.41","10^9/L","0.12","0.92","0.41",0.41,"10^9/L",0.12,0.92,"NORMAL","",8,"WEEK 8","TREATMENT","2013-01-23T12:13",55],
["CDISCPILOT01","LB","CDISC001",176,"PLAT","Platelets","HEMATOLOGY","174","10^9/L","130","394","174",174,"10^9/L",130,394,"NORMAL","",8,"WEEK 8","TREATMENT","2013-01-23T12:13",55],
["CDISCPILOT01","LB","CDISC001",178,"RBC","Erythrocytes","HEMATOLOGY","4.80","10^12/L","4","5.8","4.8",4.8,"10^12/L",4,5.8,"NORMAL","",8,"WEEK 8","TREATMENT","2013-01-23T12:13",55],
["CDISCPILOT01","LB","CDISC001",182,"WBC","Leukocytes","HEMATOLOGY","4.98","10^9/L","3.8","10.7","4.98",4.98,"10^9/L",3.8,10.7,"NORMAL","",8,"WEEK 8","TREATMENT","2013-01-23T12:13",55],
["CDISCPILOT01","LB","CDISC002",5,"BASO","Basophils","HEMATOLOGY","0.10","10^9/L","0","0.2","0.1",0.1,"10^9/L",0,0.2,"NORMAL","Y",1,"SCREENING 1","SCREENING","2012-10-30T14:26",-16],
["CDISCPILOT01","LB","CDISC002",14,"EOS","Eosinophils","HEMATOLOGY","0.05","10^9/L","0","0.57","0.05",0.05,"10^9/L",0,0.57,"NORMAL","Y",1,"SCREENING 1","SCREENING","2012-10-30T14:26",-16],
["CDISCPILOT01","LB","CDISC002",17,"HCT","Hematocrit","HEMATOLOGY","47.0","%","34","48","0.47",0.47,"",0.34,0.48,"NORMAL","Y",1,"SCREENING 1","SCREENING","2012-10-30T14:26",-16],
["CDISCPILOT01","LB","CDISC002",18,"HGB","Hemoglobin","HEMATOLOGY","15.2","g/dL","11.5","15.8","9.43312",9.43312,"mmol/L",7.14,9.81,"NORMAL","Y",1,"SCREENING 1","SCREENING","2012-10-30T14:26",-16],
["CDISCPILOT01","LB","CDISC002",21,"LYM","Lymphocytes","HEMATOLOGY","1.20","10^9/L","0.8","3","1.2",1.2,"10^9/L",0.8,3,"NORMAL","Y",1,"SCREENING 1","SCREENING","2012-10-30T14:26",-16],
["CDISCPILOT01","LB","CDISC002",22,"MCH","Ery. Mean Corpuscular Hemoglobin","HEMATOLOGY","30","pg","26","34","1.8618",1.8618,"fmol",1.6,2.1,"NORMAL","Y",1,"SCREENING 1","SCREENING","2012-10-30T14:26",-16],
["CDISCPILOT01","LB","CDISC002",23,"MCHC","Ery. Mean Corpuscular HGB Concentration","HEMATOLOGY","32","g/dL","31","38","19.8592",19.8592,"mmol/L",19,24,"NORMAL","Y",1,"SCREENING 1","SCREENING","2012-10-30T14:26",-16],
["CDISCPILOT01","LB","CDISC002",24,"MCV","Ery. Mean Corpuscular Volume","HEMATOLOGY","93","fL","80","100","93",93,"fL",80,100,"NORMAL","Y",1,"SCREENING 1","SCREENING","2012-10-30T14:26",-16],
["CDISCPILOT01","LB","CDISC002",25,"MONO","Monocytes","HEMATOLOGY","0.64","10^9/L","0.12","0.92","0.64",0.64,"10^9/L",0.12,0.92,"NORMAL","Y",1,"SCREENING 1","SCREENING","2012-10-30T14:26",-16],
["CDISCPILOT01","LB","CDISC002",29,"PLAT","Platelets","HEMATOLOGY","347","10^9/L","130","394","347",347,"10^9/L",130,394,"NORMAL","Y",1,"SCREENING 1","SCREENING","2012-10-30T14:26",-16],
["CDISCPILOT01","LB","CDISC002",31,"RBC","Erythrocytes","HEMATOLOGY","5.10","10^12/L","3.9","5.5","5.1",5.1,"10^12/L",3.9,5.5,"NORMAL","Y",1,"SCREENING 1","SCREENING","2012-10-30T14:26",-16],
["CDISCPILOT01","LB","CDISC002",37,"WBC","Leukocytes","HEMATOLOGY","7.18","10^9/L","3.8","10.7","7.18",7.18,"10^9/L",3.8,10.7,"NORMAL","Y",1,"SCREENING 1","SCREENING","2012-10-30T14:26",-16],
["CDISCPILOT01","LB","CDISC002",42,"BASO","Basophils","HEMATOLOGY","0.03","10^9/L","0","0.2","0.03",0.03,"10^9/L",0,0.2,"NORMAL","",4,"WEEK 2","TREATMENT","2012-11-28T10:00",14],
["CDISCPILOT01","LB","CDISC002",51,"EOS","Eosinophils","HEMATOLOGY","0.06","10^9/L","0","0.57","0.06",0.06,"10^9/L",0,0.57,"NORMAL","",4,"WEEK 2","TREATMENT","2012-11-28T10:00",14],
["CDISCPILOT01","LB","CDISC002",54,"HCT","Hematocrit","HEMATOLOGY","42.0","%","34","48","0.42",0.42,"",0.34,0.48,"NORMAL","",4,"WEEK 2","TREATMENT","2012-11-28T10:00",14],
["CDISCPILOT01","LB","CDISC002",55,"HGB","Hemoglobin","HEMATOLOGY","13.8","g/dL","11.5","15.8","8.56428",8.56428,"mmol/L",7.14,9.81,"NORMAL","",4,"WEEK 2","TREATMENT","2012-11-28T10:00",14],
["CDISCPILOT01","LB","CDISC002",58,"LYM","Lymphocytes","HEMATOLOGY","1.17","10^9/L","0.8","3","1.17",1.17,"10^9/L",0.8,3,"NORMAL","",4,"WEEK 2","TREATMENT","2012-11-28T10:00",14],
["CDISCPILOT01","LB","CDISC002",59,"MCH","Ery. Mean Corpuscular Hemoglobin","HEMATOLOGY","31","pg","26","34","1.92386",1.92386,"fmol",1.6,2.1,"NORMAL","",4,"WEEK 2","TREATMENT","2012-11-28T10:00",14],
["CDISCPILOT01","LB","CDISC002",60,"MCHC","Ery. Mean Corpuscular HGB Concentration","HEMATOLOGY","33","g/dL","31","38","20.4798",20.4798,"mmol/L",19,24,"NORMAL","",4,"WEEK 2","TREATMENT","2012-11-28T10:00",14],
["CDISCPILOT01","LB","CDISC002",61,"MCV","Ery. Mean Corpuscular Volume","HEMATOLOGY","92","fL","80","100","92",92,"fL",80,100,"NORMAL","",4,"WEEK 2","TREATMENT","2012-11-28T10:00",14],
["CDISCPILOT01","LB","CDISC002",62,"MONO","Monocytes","HEMATOLOGY","0.92","10^9/L","0.12","0.92","0.92",0.92,"10^9/L",0.12,0.92,"NORMAL","",4,"WEEK 2","TREATMENT","2012-11-28T10:00",14],
["CDISCPILOT01","LB","CDISC002",66,"PLAT","Platelets","HEMATOLOGY","330","10^9/L","130","394","330",330,"10^9/L",130,394,"NORMAL","",4,"WEEK 2","TREATMENT","2012-11-28T10:00",14],
["CDISCPILOT01","LB","CDISC002",68,"RBC","Erythrocytes","HEMATOLOGY","4.50","10^12/L","3.9","5.5","4.5",4.5,"10^12/L",3.9,5.5,"NORMAL","",4,"WEEK 2","TREATMENT","2012-11-28T10:00",14],
["CDISCPILOT01","LB","CDISC002",72,"WBC","Leukocytes","HEMATOLOGY","8.17","10^9/L","3.8","10.7","8.17",8.17,"10^9/L",3.8,10.7,"NORMAL","",4,"WEEK 2","TREATMENT","2012-11-28T10:00",14],
["CDISCPILOT01","LB","CDISC002",77,"BASO","Basophils","HEMATOLOGY","0.04","10^9/L","0","0.2","0.04",0.04,"10^9/L",0,0.2,"NORMAL","",5,"WEEK 4","TREATMENT","2012-12-11T12:16",27],
["CDISCPILOT01","LB","CDISC002",85,"EOS","Eosinophils","HEMATOLOGY","0.04","10^9/L","0","0.57","0.04",0.04,"10^9/L",0,0.57,"NORMAL","",5,"WEEK 4","TREATMENT","2012-12-11T12:16",27],
["CDISCPILOT01","LB","CDISC002",88,"HCT","Hematocrit","HEMATOLOGY","40.0","%","34","48","0.4",0.4,"",0.34,0.48,"NORMAL","",5,"WEEK 4","TREATMENT","2012-12-11T12:16",27],
["CDISCPILOT01","LB","CDISC002",89,"HGB","Hemoglobin","HEMATOLOGY","13.2","g/dL","11.5","15.8","8.19192",8.19192,"mmol/L",7.14,9.81,"NORMAL","",5,"WEEK 4","TREATMENT","2012-12-11T12:16",27],
["CDISCPILOT01","LB","CDISC002",91,"LYM","Lymphocytes","HEMATOLOGY","1.18","10^9/L","0.8","3","1.18",1.18,"10^9/L",0.8,3,"NORMAL","",5,"WEEK 4","TREATMENT","2012-12-11T12:16",27],
["CDISCPILOT01","LB","CDISC002",92,"MCH","Ery. Mean Corpuscular Hemoglobin","HEMATOLOGY","30","pg","26","34","1.8618",1.8618,"fmol",1.6,2.1,"NORMAL","",5,"WEEK 4","TREATMENT","2012-12-11T12:16",27],
["CDISCPILOT01","LB","CDISC002",93,"MCHC","Ery. Mean Corpuscular HGB Concentration","HEMATOLOGY","33","g/dL","31","38","20.4798",20.4798,"mmol/L",19,24,"NORMAL","",5,"WEEK 4","TREATMENT","2012-12-11T12:16",27],
["CDISCPILOT01","LB","CDISC002",94,"MCV","Ery. Mean Corpuscular Volume","HEMATOLOGY","92","fL","80","100","92",92,"fL",80,100,"NORMAL","",5,"WEEK 4","TREATMENT","2012-12-11T12:16",27],
["CDISCPILOT01","LB","CDISC002",95,"MONO","Monocytes","HEMATOLOGY","0.88","10^9/L","0.12","0.92","0.88",0.88,"10^9/L",0.12,0.92,"NORMAL","",5,"WEEK 4","TREATMENT","2012-12-11T12:16",27],
["CDISCPILOT01","LB","CDISC002",98,"PLAT","Platelets","HEMATOLOGY","379","10^9/L","130","394","379",379,"10^9/L",130,394,"NORMAL","",5,"WEEK 4","TREATMENT","2012-12-11T12:16",27],
["CDISCPILOT01","LB","CDISC002",100,"RBC","Erythrocytes","HEMATOLOGY","4.40","10^12/L","3.9","5.5","4.4",4.4,"10^12/L",3.9,5.5,"NORMAL","",5,"WEEK 4","TREATMENT","2012-12-11T12:16",27],
["CDISCPILOT01","LB","CDISC002",102,"WBC","Leukocytes","HEMATOLOGY","7.53","10^9/L","3.8","10.7","7.53",7.53,"10^9/L",3.8,10.7,"NORMAL","",5,"WEEK 4","TREATMENT","2012-12-11T12:16",27],
["CDISCPILOT01","LB","CDISC002",107,"BASO","Basophils","HEMATOLOGY","0.04","10^9/L","0","0.2","0.04",0.04,"10^9/L",0,0.2,"NORMAL","",7,"WEEK 6","TREATMENT","2012-12-25T14:00",41],
["CDISCPILOT01","LB","CDISC002",115,"EOS","Eosinophils","HEMATOLOGY","0.08","10^9/L","0","0.57","0.08",0.08,"10^9/L",0,0.57,"NORMAL","",7,"WEEK 6","TREATMENT","2012-12-25T14:00",41],
["CDISCPILOT01","LB","CDISC002",118,"HCT","Hematocrit","HEMATOLOGY","38.0","%","34","48","0.38",0.38,"",0.34,0.48,"NORMAL","",7,"WEEK 6","TREATMENT","2012-12-25T14:00",41],
["CDISCPILOT01","LB","CDISC002",119,"HGB","Hemoglobin","HEMATOLOGY","12.6","g/dL","11.5","15.8","7.81956",7.81956,"mmol/L",7.14,9.81,"NORMAL","",7,"WEEK 6","TREATMENT","2012-12-25T14:00",41],
["CDISCPILOT01","LB","CDISC002",121,"LYM","Lymphocytes","HEMATOLOGY","1.40","10^9/L","0.8","3","1.4",1.4,"10^9/L",0.8,3,"NORMAL","",7,"WEEK 6","TREATMENT","2012-12-25T14:00",41],
["CDISCPILOT01","LB","CDISC002",122,"MCH","Ery. Mean Corpuscular Hemoglobin","HEMATOLOGY","31","pg","26","34","1.92386",1.92386,"fmol",1.6,2.1,"NORMAL","",7,"WEEK 6","TREATMENT","2012-12-25T14:00",41],
["CDISCPILOT01","LB","CDISC002",123,"MCHC","Ery. Mean Corpuscular HGB Concentration","HEMATOLOGY","34","g/dL","31","38","21.1004",21.1004,"mmol/L",19,24,"NORMAL","",7,"WEEK 6","TREATMENT","2012-12-25T14:00",41],
["CDISCPILOT01","LB","CDISC002",124,"MCV","Ery. Mean Corpuscular Volume","HEMATOLOGY","93","fL","80","100","93",93,"fL",80,100,"NORMAL","",7,"WEEK 6","TREATMENT","2012-12-25T14:00",41],
["CDISCPILOT01","LB","CDISC002",125,"MONO","Monocytes","HEMATOLOGY","0.69","10^9/L","0.12","0.92","0.69",0.69,"10^9/L",0.12,0.92,"NORMAL","",7,"WEEK 6","TREATMENT","2012-12-25T14:00",41],
["CDISCPILOT01","LB","CDISC002",128,"PLAT","Platelets","HEMATOLOGY","326","10^9/L","130","394","326",326,"10^9/L",130,394,"NORMAL","",7,"WEEK 6","TREATMENT","2012-12-25T14:00",41],
["CDISCPILOT01","LB","CDISC002",130,"RBC","Erythrocytes","HEMATOLOGY","4.10","10^12/L","3.9","5.5","4.1",4.1,"10^12/L",3.9,5.5,"NORMAL","",7,"WEEK 6","TREATMENT","2012-12-25T14:00",41],
["CDISCPILOT01","LB","CDISC002",132,"WBC","Leukocytes","HEMATOLOGY","6.26","10^9/L","3.8","10.7","6.26",6.26,"10^9/L",3.8,10.7,"NORMAL","",7,"WEEK 6","TREATMENT","2012-12-25T14:00",41],
["CDISCPILOT01","LB","CDISC002",137,"BASO","Basophils","HEMATOLOGY","0.02","10^9/L","0","0.2","0.02",0.02,"10^9/L",0,0.2,"NORMAL","",8,"WEEK 8","TREATMENT","2013-01-08T12:13",55],
["CDISCPILOT01","LB","CDISC002",145,"EOS","Eosinophils","HEMATOLOGY","0.05","10^9/L","0","0.57","0.05",0.05,"10^9/L",0,0.57,"NORMAL","",8,"WEEK 8","TREATMENT","2013-01-08T12:13",55],
["CDISCPILOT01","LB","CDISC002",148,"HCT","Hematocrit","HEMATOLOGY","42.0","%","34","48","0.42",0.42,"",0.34,0.48,"NORMAL","",8,"WEEK 8","TREATMENT","2013-01-08T12:13",55],
["CDISCPILOT01","LB","CDISC002",149,"HGB","Hemoglobin","HEMATOLOGY","13.9","g/dL","11.5","15.8","8.62634",8.62634,"mmol/L",7.14,9.81,"NORMAL","",8,"WEEK 8","TREATMENT","2013-01-08T12:13",55],
["CDISCPILOT01","LB","CDISC002",151,"LYM","Lymphocytes","HEMATOLOGY","0.95","10^9/L","0.8","3","0.95",0.95,"10^9/L",0.8,3,"NORMAL","",8,"WEEK 8","TREATMENT","2013-01-08T12:13",55],
["CDISCPILOT01","LB","CDISC002",152,"MCH","Ery. Mean Corpuscular Hemoglobin","HEMATOLOGY","31","pg","26","34","1.92386",1.92386,"fmol",1.6,2.1,"NORMAL","",8,"WEEK 8","TREATMENT","2013-01-08T12:13",55],
["CDISCPILOT01","LB","CDISC002",153,"MCHC","Ery. Mean Corpuscular HGB Concentration","HEMATOLOGY","33","g/dL","31","38","20.4798",20.4798,"mmol/L",19,24,"NORMAL","",8,"WEEK 8","TREATMENT","2013-01-08T12:13",55],
["CDISCPILOT01","LB","CDISC002",154,"MCV","Ery. Mean Corpuscular Volume","HEMATOLOGY","93","fL","80","100","93",93,"fL",80,100,"NORMAL","",8,"WEEK 8","TREATMENT","2013-01-08T12:13",55],
["CDISCPILOT01","LB","CDISC002",155,"MONO","Monocytes","HEMATOLOGY","0.80","10^9/L","0.12","0.92","0.8",0.8,"10^9/L",0.12,0.92,"NORMAL","",8,"WEEK 8","TREATMENT","2013-01-08T12:13",55],
["CDISCPILOT01","LB","CDISC002",158,"PLAT","Platelets","HEMATOLOGY","369","10^9/L","130","394","369",369,"10^9/L",130,394,"NORMAL","",8,"WEEK 8","TREATMENT","2013-01-08T12:13",55],
["CDISCPILOT01","LB","CDISC002",160,"RBC","Erythrocytes","HEMATOLOGY","4.50","10^12/L","3.9","5.5","4.5",4.5,"10^12/L",3.9,5.5,"NORMAL","",8,"WEEK 8","TREATMENT","2013-01-08T12:13",55],
["CDISCPILOT01","LB","CDISC002",162,"WBC","Leukocytes","HEMATOLOGY","8.29","10^9/L","3.8","10.7","8.29",8.29,"10^9/L",3.8,10.7,"NORMAL","",8,"WEEK 8","TREATMENT","2013-01-08T12:13",55],
["CDISCPILOT01","LB","CDISC003",5,"BASO","Basophils","HEMATOLOGY","0.07","10^9/L","0","0.2","0.07",0.07,"10^9/L",0,0.2,"NORMAL","Y",1,"SCREENING 1","SCREENING","2013-08-20T12:27",-9],
["CDISCPILOT01","LB","CDISC003",14,"EOS","Eosinophils","HEMATOLOGY","0.30","10^9/L","0","0.57","0.3",0.3,"10^9/L",0,0.57,"NORMAL","Y",1,"SCREENING 1","SCREENING","2013-08-20T12:27",-9],
["CDISCPILOT01","LB","CDISC003",17,"HCT","Hematocrit","HEMATOLOGY","44.0","%","37","51","0.44",0.44,"",0.37,0.51,"NORMAL","Y",1,"SCREENING 1","SCREENING","2013-08-20T12:27",-9],
["CDISCPILOT01","LB","CDISC003",18,"HGB","Hemoglobin","HEMATOLOGY","14.6","g/dL","12.5","17","9.06076",9.06076,"mmol/L",7.76,10.55,"NORMAL","Y",1,"SCREENING 1","SCREENING","2013-08-20T12:27",-9],
["CDISCPILOT01","LB","CDISC003",21,"LYM","Lymphocytes","HEMATOLOGY","1.48","10^9/L","0.8","3","1.48",1.48,"10^9/L",0.8,3,"NORMAL","Y",1,"SCREENING 1","SCREENING","2013-08-20T12:27",-9],
["CDISCPILOT01","LB","CDISC003",22,"MCH","Ery. Mean Corpuscular Hemoglobin","HEMATOLOGY","31","pg","26","34","1.92386",1.92386,"fmol",1.6,2.1,"NORMAL","Y",1,"SCREENING 1","SCREENING","2013-08-20T12:27",-9],
["CDISCPILOT01","LB","CDISC003",23,"MCHC","Ery. Mean Corpuscular HGB Concentration","HEMATOLOGY","33","g/dL","31","38","20.4798",20.4798,"mmol/L",19,24,"NORMAL","Y",1,"SCREENING 1","SCREENING","2013-08-20T12:27",-9],
["CDISCPILOT01","LB","CDISC003",24,"MCV","Ery. Mean Corpuscular Volume","HEMATOLOGY","92","fL","80","100","92",92,"fL",80,100,"NORMAL","Y",1,"SCREENING 1","SCREENING","2013-08-20T12:27",-9],
["CDISCPILOT01","LB","CDISC003",25,"MONO","Monocytes","HEMATOLOGY","0.45","10^9/L","0.12","0.92","0.45",0.45,"10^9/L",0.12,0.92,"NORMAL","Y",1,"SCREENING 1","SCREENING","2013-08-20T12:27",-9],
["CDISCPILOT01","LB","CDISC003",29,"PLAT","Platelets","HEMATOLOGY","220","10^9/L","130","394","220",220,"10^9/L",130,394,"NORMAL","Y",1,"SCREENING 1","SCREENING","2013-08-20T12:27",-9],
["CDISCPILOT01","LB","CDISC003",31,"RBC","Erythrocytes","HEMATOLOGY","4.80","10^12/L","4","5.8","4.8",4.8,"10^12/L",4,5.8,"NORMAL","Y",1,"SCREENING 1","SCREENING","2013-08-20T12:27",-9],
["CDISCPILOT01","LB","CDISC003",37,"WBC","Leukocytes","HEMATOLOGY","4.87","10^9/L","3.8","10.7","4.87",4.87,"10^9/L",3.8,10.7,"NORMAL","Y",1,"SCREENING 1","SCREENING","2013-08-20T12:27",-9],
["CDISCPILOT01","LB","CDISC003",42,"BASO","Basophils","HEMATOLOGY","0.05","10^9/L","0","0.2","0.05",0.05,"10^9/L",0,0.2,"NORMAL","",4,"WEEK 2","TREATMENT","2013-09-15T12:44",18],
["CDISCPILOT01","LB","CDISC003",51,"EOS","Eosinophils","HEMATOLOGY","0.19","10^9/L","0","0.57","0.19",0.19,"10^9/L",0,0.57,"NORMAL","",4,"WEEK 2","TREATMENT","2013-09-15T12:44",18],
["CDISCPILOT01","LB","CDISC003",54,"HCT","Hematocrit","HEMATOLOGY","39.0","%","37","51","0.39",0.39,"",0.37,0.51,"NORMAL","",4,"WEEK 2","TREATMENT","2013-09-15T12:44",18],
["CDISCPILOT01","LB","CDISC003",55,"HGB","Hemoglobin","HEMATOLOGY","13.2","g/dL","12.5","17","8.19192",8.19192,"mmol/L",7.76,10.55,"NORMAL","",4,"WEEK 2","TREATMENT","2013-09-15T12:44",18],
["CDISCPILOT01","LB","CDISC003",58,"LYM","Lymphocytes","HEMATOLOGY","1.31","10^9/L","0.8","3","1.31",1.31,"10^9/L",0.8,3,"NORMAL","",4,"WEEK 2","TREATMENT","2013-09-15T12:44",18],
["CDISCPILOT01","LB","CDISC003",59,"MCH","Ery. Mean Corpuscular Hemoglobin","HEMATOLOGY","32","pg","26","34","1.98592",1.98592,"fmol",1.6,2.1,"NORMAL","",4,"WEEK 2","TREATMENT","2013-09-15T12:44",18],
["CDISCPILOT01","LB","CDISC003",60,"MCHC","Ery. Mean Corpuscular HGB Concentration","HEMATOLOGY","34","g/dL","31","38","21.1004",21.1004,"mmol/L",19,24,"NORMAL","",4,"WEEK 2","TREATMENT","2013-09-15T12:44",18],
["CDISCPILOT01","LB","CDISC003",61,"MCV","Ery. Mean Corpuscular Volume","HEMATOLOGY","93","fL","80","100","93",93,"fL",80,100,"NORMAL","",4,"WEEK 2","TREATMENT","2013-09-15T12:44",18],
["CDISCPILOT01","LB","CDISC003",62,"MONO","Monocytes","HEMATOLOGY","0.32","10^9/L","0.12","0.92","0.32",0.32,"10^9/L",0.12,0.92,"NORMAL","",4,"WEEK 2","TREATMENT","2013-09-15T12:44",18],
["CDISCPILOT01","LB","CDISC003",66,"PLAT","Platelets","HEMATOLOGY","230","10^9/L","130","394","230",230,"10^9/L",130,394,"NORMAL","",4,"WEEK 2","TREATMENT","2013-09-15T12:44",18],
["CDISCPILOT01","LB","CDISC003",68,"RBC","Erythrocytes","HEMATOLOGY","4.20","10^12/L","4","5.8","4.2",4.2,"10^12/L",4,5.8,"NORMAL","",4,"WEEK 2","TREATMENT","2013-09-15T12:44",18],
["CDISCPILOT01","LB","CDISC003",72,"WBC","Leukocytes","HEMATOLOGY","4.59","10^9/L","3.8","10.7","4.59",4.59,"10^9/L",3.8,10.7,"NORMAL","",4,"WEEK 2","TREATMENT","2013-09-15T12:44",18],
["CDISCPILOT01","LB","CDISC003",77,"BASO","Basophils","HEMATOLOGY","0.06","10^9/L","0","0.2","0.06",0.06,"10^9/L",0,0.2,"NORMAL","",5,"WEEK 4","TREATMENT","2013-09-24T08:16",27],
["CDISCPILOT01","LB","CDISC003",85,"EOS","Eosinophils","HEMATOLOGY","0.32","10^9/L","0","0.57","0.32",0.32,"10^9/L",0,0.57,"NORMAL","",5,"WEEK 4","TREATMENT","2013-09-24T08:16",27],
["CDISCPILOT01","LB","CDISC003",88,"HCT","Hematocrit","HEMATOLOGY","41.0","%","37","51","0.41",0.41,"",0.37,0.51,"NORMAL","",5,"WEEK 4","TREATMENT","2013-09-24T08:16",27],
["CDISCPILOT01","LB","CDISC003",89,"HGB","Hemoglobin","HEMATOLOGY","13.8","g/dL","12.5","17","8.56428",8.56428,"mmol/L",7.76,10.55,"NORMAL","",5,"WEEK 4","TREATMENT","2013-09-24T08:16",27],
["CDISCPILOT01","LB","CDISC003",91,"LYM","Lymphocytes","HEMATOLOGY","1.25","10^9/L","0.8","3","1.25",1.25,"10^9/L",0.8,3,"NORMAL","",5,"WEEK 4","TREATMENT","2013-09-24T08:16",27],
["CDISCPILOT01","LB","CDISC003",92,"MCH","Ery. Mean Corpuscular Hemoglobin","HEMATOLOGY","31","pg","26","34","1.92386",1.92386,"fmol",1.6,2.1,"NORMAL","",5,"WEEK 4","TREATMENT","2013-09-24T08:16",27],
["CDISCPILOT01","LB","CDISC003",93,"MCHC","Ery. Mean Corpuscular HGB Concentration","HEMATOLOGY","34","g/dL","31","38","21.1004",21.1004,"mmol/L",19,24,"NORMAL","",5,"WEEK 4","TREATMENT","2013-09-24T08:16",27],
["CDISCPILOT01","LB","CDISC003",94,"MCV","Ery. Mean Corpuscular Volume","HEMATOLOGY","93","fL","80","100","93",93,"fL",80,100,"NORMAL","",5,"WEEK 4","TREATMENT","2013-09-24T08:16",27],
["CDISCPILOT01","LB","CDISC003",95,"MONO","Monocytes","HEMATOLOGY","0.42","10^9/L","0.12","0.92","0.42",0.42,"10^9/L",0.12,0.92,"NORMAL","",5,"WEEK 4","TREATMENT","2013-09-24T08:16",27],
["CDISCPILOT01","LB","CDISC003",98,"PLAT","Platelets","HEMATOLOGY","234","10^9/L","130","394","234",234,"10^9/L",130,394,"NORMAL","",5,"WEEK 4","TREATMENT","2013-09-24T08:16",27],
["CDISCPILOT01","LB","CDISC003",100,"RBC","Erythrocytes","HEMATOLOGY","4.40","10^12/L","4","5.8","4.4",4.4,"10^12/L",4,5.8,"NORMAL","",5,"WEEK 4","TREATMENT","2013-09-24T08:16",27],
["CDISCPILOT01","LB","CDISC003",102,"WBC","Leukocytes","HEMATOLOGY","4.47","10^9/L","3.8","10.7","4.47",4.47,"10^9/L",3.8,10.7,"NORMAL","",5,"WEEK 4","TREATMENT","2013-09-24T08:16",27],
["CDISCPILOT01","LB","CDISC003",107,"BASO","Basophils","HEMATOLOGY","0.06","10^9/L","0","0.2","0.06",0.06,"10^9/L",0,0.2,"NORMAL","",7,"WEEK 6","TREATMENT","2013-10-08T15:30",41],
["CDISCPILOT01","LB","CDISC003",115,"EOS","Eosinophils","HEMATOLOGY","0.30","10^9/L","0","0.57","0.3",0.3,"10^9/L",0,0.57,"NORMAL","",7,"WEEK 6","TREATMENT","2013-10-08T15:30",41],
["CDISCPILOT01","LB","CDISC003",118,"HCT","Hematocrit","HEMATOLOGY","38.0","%","37","51","0.38",0.38,"",0.37,0.51,"NORMAL","",7,"WEEK 6","TREATMENT","2013-10-08T15:30",41],
["CDISCPILOT01","LB","CDISC003",119,"HGB","Hemoglobin","HEMATOLOGY","13.3","g/dL","12.5","17","8.25398",8.25398,"mmol/L",7.76,10.55,"NORMAL","",7,"WEEK 6","TREATMENT","2013-10-08T15:30",41],
["CDISCPILOT01","LB","CDISC003",121,"LYM","Lymphocytes","HEMATOLOGY","1.82","10^9/L","0.8","3","1.82",1.82,"10^9/L",0.8,3,"NORMAL","",7,"WEEK 6","TREATMENT","2013-10-08T15:30",41],
["CDISCPILOT01","LB","CDISC003",122,"MCH","Ery. Mean Corpuscular Hemoglobin","HEMATOLOGY","32","pg","26","34","1.98592",1.98592,"fmol",1.6,2.1,"NORMAL","",7,"WEEK 6","TREATMENT","2013-10-08T15:30",41],
["CDISCPILOT01","LB","CDISC003",123,"MCHC","Ery. Mean Corpuscular HGB Concentration","HEMATOLOGY","35","g/dL","31","38","21.721",21.721,"mmol/L",19,24,"NORMAL","",7,"WEEK 6","TREATMENT","2013-10-08T15:30",41],
["CDISCPILOT01","LB","CDISC003",124,"MCV","Ery. Mean Corpuscular Volume","HEMATOLOGY","91","fL","80","100","91",91,"fL",80,100,"NORMAL","",7,"WEEK 6","TREATMENT","2013-10-08T15:30",41],
["CDISCPILOT01","LB","CDISC003",125,"MONO","Monocytes","HEMATOLOGY","0.30","10^9/L","0.12","0.92","0.3",0.3,"10^9/L",0.12,0.92,"NORMAL","",7,"WEEK 6","TREATMENT","2013-10-08T15:30",41],
["CDISCPILOT01","LB","CDISC003",128,"PLAT","Platelets","HEMATOLOGY","194","10^9/L","130","394","194",194,"10^9/L",130,394,"NORMAL","",7,"WEEK 6","TREATMENT","2013-10-08T15:30",41],
["CDISCPILOT01","LB","CDISC003",130,"RBC","Erythrocytes","HEMATOLOGY","4.20","10^12/L","4","5.8","4.2",4.2,"10^12/L",4,5.8,"NORMAL","",7,"WEEK 6","TREATMENT","2013-10-08T15:30",41],
["CDISCPILOT01","LB","CDISC003",132,"WBC","Leukocytes","HEMATOLOGY","6.07","10^9/L","3.8","10.7","6.07",6.07,"10^9/L",3.8,10.7,"NORMAL","",7,"WEEK 6","TREATMENT","2013-10-08T15:30",41],
["CDISCPILOT01","LB","CDISC003",137,"BASO","Basophils","HEMATOLOGY","0.04","10^9/L","0","0.2","0.04",0.04,"10^9/L",0,0.2,"NORMAL","",8,"WEEK 8","TREATMENT","2013-10-22T11:54",55],
["CDISCPILOT01","LB","CDISC003",145,"EOS","Eosinophils","HEMATOLOGY","0.22","10^9/L","0","0.57","0.22",0.22,"10^9/L",0,0.57,"NORMAL","",8,"WEEK 8","TREATMENT","2013-10-22T11:54",55],
["CDISCPILOT01","LB","CDISC003",148,"HCT","Hematocrit","HEMATOLOGY","43.0","%","37","51","0.43",0.43,"",0.37,0.51,"NORMAL","",8,"WEEK 8","TREATMENT","2013-10-22T11:54",55],
["CDISCPILOT01","LB","CDISC003",149,"HGB","Hemoglobin","HEMATOLOGY","14.5","g/dL","12.5","17","8.9987",8.9987,"mmol/L",7.76,10.55,"NORMAL","",8,"WEEK 8","TREATMENT","2013-10-22T11:54",55],
["CDISCPILOT01","LB","CDISC003",151,"LYM","Lymphocytes","HEMATOLOGY","1.54","10^9/L","0.8","3","1.54",1.54,"10^9/L",0.8,3,"NORMAL","",8,"WEEK 8","TREATMENT","2013-10-22T11:54",55],
["CDISCPILOT01","LB","CDISC003",152,"MCH","Ery. Mean Corpuscular Hemoglobin","HEMATOLOGY","32","pg","26","34","1.98592",1.98592,"fmol",1.6,2.1,"NORMAL","",8,"WEEK 8","TREATMENT","2013-10-22T11:54",55],
["CDISCPILOT01","LB","CDISC003",153,"MCHC","Ery. Mean Corpuscular HGB Concentration","HEMATOLOGY","34","g/dL","31","38","21.1004",21.1004,"mmol/L",19,24,"NORMAL","",8,"WEEK 8","TREATMENT","2013-10-22T11:54",55],
["CDISCPILOT01","LB","CDISC003",154,"MCV","Ery. Mean Corpuscular Volume","HEMATOLOGY","93","fL","80","100","93",93,"fL",80,100,"NORMAL","",8,"WEEK 8","TREATMENT","2013-10-22T11:54",55],
["CDISCPILOT01","LB","CDISC003",155,"MONO","Monocytes","HEMATOLOGY","0.40","10^9/L","0.12","0.92","0.4",0.4,"10^9/L",0.12,0.92,"NORMAL","",8,"WEEK 8","TREATMENT","2013-10-22T11:54",55],
["CDISCPILOT01","LB","CDISC003",158,"PLAT","Platelets","HEMATOLOGY","225","10^9/L","130","394","225",225,"10^9/L",130,394,"NORMAL","",8,"WEEK 8","TREATMENT","2013-10-22T11:54",55],
["CDISCPILOT01","LB","CDISC003",160,"RBC","Erythrocytes","HEMATOLOGY","4.60","10^12/L","4","5.8","4.6",4.6,"10^12/L",4,5.8,"NORMAL","",8,"WEEK 8","TREATMENT","2013-10-22T11:54",55],
["CDISCPILOT01","LB","CDISC003",162,"WBC","Leukocytes","HEMATOLOGY","4.64","10^9/L","3.8","10.7","4.64",4.64,"10^9/L",3.8,10.7,"NORMAL","",8,"WEEK 8","TREATMENT","2013-10-22T11:54",55],
["CDISCPILOT01","LB","CDISC003",167,"BASO","Basophils","HEMATOLOGY","0.05","10^9/L","0","0.2","0.05",0.05,"10^9/L",0,0.2,"NORMAL","",9,"WEEK 12","TREATMENT","2013-11-05T13:54",69],
["CDISCPILOT01","LB","CDISC003",176,"EOS","Eosinophils","HEMATOLOGY","0.50","10^9/L","0","0.57","0.5",0.5,"10^9/L",0,0.57,"NORMAL","",9,"WEEK 12","TREATMENT","2013-11-05T13:54",69],
["CDISCPILOT01","LB","CDISC003",179,"HCT","Hematocrit","HEMATOLOGY","41.0","%","37","51","0.41",0.41,"",0.37,0.51,"NORMAL","",9,"WEEK 12","TREATMENT","2013-11-05T13:54",69],
["CDISCPILOT01","LB","CDISC003",180,"HGB","Hemoglobin","HEMATOLOGY","13.6","g/dL","12.5","17","8.44016",8.44016,"mmol/L",7.76,10.55,"NORMAL","",9,"WEEK 12","TREATMENT","2013-11-05T13:54",69],
["CDISCPILOT01","LB","CDISC003",183,"LYM","Lymphocytes","HEMATOLOGY","1.55","10^9/L","0.8","3","1.55",1.55,"10^9/L",0.8,3,"NORMAL","",9,"WEEK 12","TREATMENT","2013-11-05T13:54",69],
["CDISCPILOT01","LB","CDISC003",184,"MCH","Ery. Mean Corpuscular Hemoglobin","HEMATOLOGY","31","pg","26","34","1.92386",1.92386,"fmol",1.6,2.1,"NORMAL","",9,"WEEK 12","TREATMENT","2013-11-05T13:54",69],
["CDISCPILOT01","LB","CDISC003",185,"MCHC","Ery. Mean Corpuscular HGB Concentration","HEMATOLOGY","34","g/dL","31","38","21.1004",21.1004,"mmol/L",19,24,"NORMAL","",9,"WEEK 12","TREATMENT","2013-11-05T13:54",69],
["CDISCPILOT01","LB","CDISC003",186,"MCV","Ery. Mean Corpuscular Volume","HEMATOLOGY","92","fL","80","100","92",92,"fL",80,100,"NORMAL","",9,"WEEK 12","TREATMENT","2013-11-05T13:54",69],
["CDISCPILOT01","LB","CDISC003",187,"MONO","Monocytes","HEMATOLOGY","0.54","10^9/L","0.12","0.92","0.54",0.54,"10^9/L",0.12,0.92,"NORMAL","",9,"WEEK 12","TREATMENT","2013-11-05T13:54",69],
["CDISCPILOT01","LB","CDISC003",191,"PLAT","Platelets","HEMATOLOGY","224","10^9/L","130","394","224",224,"10^9/L",130,394,"NORMAL","",9,"WEEK 12","TREATMENT","2013-11-05T13:54",69],
["CDISCPILOT01","LB","CDISC003",193,"RBC","Erythrocytes","HEMATOLOGY","4.40","10^12/L","4","5.8","4.4",4.4,"10^12/L",4,5.8,"NORMAL","",9,"WEEK 12","TREATMENT","2013-11-05T13:54",69],
["CDISCPILOT01","LB","CDISC003",197,"WBC","Leukocytes","HEMATOLOGY","5.59","10^9/L","3.8","10.7","5.59",5.59,"10^9/L",3.8,10.7,"NORMAL","",9,"WEEK 12","TREATMENT","2013-11-05T13:54",69],
["CDISCPILOT01","LB","CDISC004",5,"BASO","Basophils","HEMATOLOGY","0.09","10^9/L","0","0.2","0.09",0.09,"10^9/L",0,0.2,"NORMAL","Y",1,"SCREENING 1","SCREENING","2013-10-01T12:50",-7],
["CDISCPILOT01","LB","CDISC004",14,"EOS","Eosinophils","HEMATOLOGY","0.14","10^9/L","0","0.57","0.14",0.14,"10^9/L",0,0.57,"NORMAL","Y",1,"SCREENING 1","SCREENING","2013-10-01T12:50",-7],
["CDISCPILOT01","LB","CDISC004",17,"HCT","Hematocrit","HEMATOLOGY","43.0","%","34","48","0.43",0.43,"",0.34,0.48,"NORMAL","Y",1,"SCREENING 1","SCREENING","2013-10-01T12:50",-7],
["CDISCPILOT01","LB","CDISC004",18,"HGB","Hemoglobin","HEMATOLOGY","13.9","g/dL","11.5","15.8","8.62634",8.62634,"mmol/L",7.14,9.81,"NORMAL","Y",1,"SCREENING 1","SCREENING","2013-10-01T12:50",-7],
["CDISCPILOT01","LB","CDISC004",21,"LYM","Lymphocytes","HEMATOLOGY","1.87","10^9/L","0.8","3","1.87",1.87,"10^9/L",0.8,3,"NORMAL","Y",1,"SCREENING 1","SCREENING","2013-10-01T12:50",-7],
["CDISCPILOT01","LB","CDISC004",22,"MCH","Ery. Mean Corpuscular Hemoglobin","HEMATOLOGY","28","pg","26","34","1.73768",1.73768,"fmol",1.6,2.1,"NORMAL","Y",1,"SCREENING 1","SCREENING","2013-10-01T12:50",-7],
["CDISCPILOT01","LB","CDISC004",23,"MCHC","Ery. Mean Corpuscular HGB Concentration","HEMATOLOGY","32","g/dL","31","38","19.8592",19.8592,"mmol/L",19,24,"NORMAL","Y",1,"SCREENING 1","SCREENING","2013-10-01T12:50",-7],
["CDISCPILOT01","LB","CDISC004",24,"MCV","Ery. Mean Corpuscular Volume","HEMATOLOGY","87","fL","80","100","87",87,"fL",80,100,"NORMAL","Y",1,"SCREENING 1","SCREENING","2013-10-01T12:50",-7],
["CDISCPILOT01","LB","CDISC004",25,"MONO","Monocytes","HEMATOLOGY","0.45","10^9/L","0.12","0.92","0.45",0.45,"10^9/L",0.12,0.92,"NORMAL","Y",1,"SCREENING 1","SCREENING","2013-10-01T12:50",-7],
["CDISCPILOT01","LB","CDISC004",29,"PLAT","Platelets","HEMATOLOGY","418","10^9/L","130","394","418",418,"10^9/L",130,394,"HIGH","Y",1,"SCREENING 1","SCREENING","2013-10-01T12:50",-7],
["CDISCPILOT01","LB","CDISC004",31,"RBC","Erythrocytes","HEMATOLOGY","5.00","10^12/L","3.9","5.5","5",5,"10^12/L",3.9,5.5,"NORMAL","Y",1,"SCREENING 1","SCREENING","2013-10-01T12:50",-7],
["CDISCPILOT01","LB","CDISC004",37,"WBC","Leukocytes","HEMATOLOGY","8.60","10^9/L","3.8","10.7","8.6",8.6,"10^9/L",3.8,10.7,"NORMAL","Y",1,"SCREENING 1","SCREENING","2013-10-01T12:50",-7],
["CDISCPILOT01","LB","CDISC004",42,"BASO","Basophils","HEMATOLOGY","0.05","10^9/L","0","0.2","0.05",0.05,"10^9/L",0,0.2,"NORMAL","",4,"WEEK 2","TREATMENT","2013-10-24T10:41",17],
["CDISCPILOT01","LB","CDISC004",51,"EOS","Eosinophils","HEMATOLOGY","0.07","10^9/L","0","0.57","0.07",0.07,"10^9/L",0,0.57,"NORMAL","",4,"WEEK 2","TREATMENT","2013-10-24T10:41",17],
["CDISCPILOT01","LB","CDISC004",54,"HCT","Hematocrit","HEMATOLOGY","43.0","%","34","48","0.43",0.43,"",0.34,0.48,"NORMAL","",4,"WEEK 2","TREATMENT","2013-10-24T10:41",17],
["CDISCPILOT01","LB","CDISC004",55,"HGB","Hemoglobin","HEMATOLOGY","13.7","g/dL","11.5","15.8","8.50222",8.50222,"mmol/L",7.14,9.81,"NORMAL","",4,"WEEK 2","TREATMENT","2013-10-24T10:41",17],
["CDISCPILOT01","LB","CDISC004",58,"LYM","Lymphocytes","HEMATOLOGY","1.20","10^9/L","0.8","3","1.2",1.2,"10^9/L",0.8,3,"NORMAL","",4,"WEEK 2","TREATMENT","2013-10-24T10:41",17],
["CDISCPILOT01","LB","CDISC004",59,"MCH","Ery. Mean Corpuscular Hemoglobin","HEMATOLOGY","28","pg","26","34","1.73768",1.73768,"fmol",1.6,2.1,"NORMAL","",4,"WEEK 2","TREATMENT","2013-10-24T10:41",17],
["CDISCPILOT01","LB","CDISC004",60,"MCHC","Ery. Mean Corpuscular HGB Concentration","HEMATOLOGY","32","g/dL","31","38","19.8592",19.8592,"mmol/L",19,24,"NORMAL","",4,"WEEK 2","TREATMENT","2013-10-24T10:41",17],
["CDISCPILOT01","LB","CDISC004",61,"MCV","Ery. Mean Corpuscular Volume","HEMATOLOGY","87","fL","80","100","87",87,"fL",80,100,"NORMAL","",4,"WEEK 2","TREATMENT","2013-10-24T10:41",17],
["CDISCPILOT01","LB","CDISC004",62,"MONO","Monocytes","HEMATOLOGY","0.41","10^9/L","0.12","0.92","0.41",0.41,"10^9/L",0.12,0.92,"NORMAL","",4,"WEEK 2","TREATMENT","2013-10-24T10:41",17],
["CDISCPILOT01","LB","CDISC004",66,"PLAT","Platelets","HEMATOLOGY","360","10^9/L","130","394","360",360,"10^9/L",130,394,"NORMAL","",4,"WEEK 2","TREATMENT","2013-10-24T10:41",17],
["CDISCPILOT01","LB","CDISC004",68,"RBC","Erythrocytes","HEMATOLOGY","4.90","10^12/L","3.9","5.5","4.9",4.9,"10^12/L",3.9,5.5,"NORMAL","",4,"WEEK 2","TREATMENT","2013-10-24T10:41",17],
["CDISCPILOT01","LB","CDISC004",72,"WBC","Leukocytes","HEMATOLOGY","4.87","10^9/L","3.8","10.7","4.87",4.87,"10^9/L",3.8,10.7,"NORMAL","",4,"WEEK 2","TREATMENT","2013-10-24T10:41",17],
["CDISCPILOT01","LB","CDISC004",77,"BASO","Basophils","HEMATOLOGY","0.09","10^9/L","0","0.2","0.09",0.09,"10^9/L",0,0.2,"NORMAL","",5,"WEEK 4","TREATMENT","2013-11-08T11:32",32],
["CDISCPILOT01","LB","CDISC004",85,"EOS","Eosinophils","HEMATOLOGY","0.08","10^9/L","0","0.57","0.08",0.08,"10^9/L",0,0.57,"NORMAL","",5,"WEEK 4","TREATMENT","2013-11-08T11:32",32],
["CDISCPILOT01","LB","CDISC004",88,"HCT","Hematocrit","HEMATOLOGY","45.0","%","34","48","0.45",0.45,"",0.34,0.48,"NORMAL","",5,"WEEK 4","TREATMENT","2013-11-08T11:32",32],
["CDISCPILOT01","LB","CDISC004",89,"HGB","Hemoglobin","HEMATOLOGY","13.8","g/dL","11.5","15.8","8.56428",8.56428,"mmol/L",7.14,9.81,"NORMAL","",5,"WEEK 4","TREATMENT","2013-11-08T11:32",32],
["CDISCPILOT01","LB","CDISC004",91,"LYM","Lymphocytes","HEMATOLOGY","2.34","10^9/L","0.8","3","2.34",2.34,"10^9/L",0.8,3,"NORMAL","",5,"WEEK 4","TREATMENT","2013-11-08T11:32",32],
["CDISCPILOT01","LB","CDISC004",92,"MCH","Ery. Mean Corpuscular Hemoglobin","HEMATOLOGY","28","pg","26","34","1.73768",1.73768,"fmol",1.6,2.1,"NORMAL","",5,"WEEK 4","TREATMENT","2013-11-08T11:32",32],
["CDISCPILOT01","LB","CDISC004",93,"MCHC","Ery. Mean Corpuscular HGB Concentration","HEMATOLOGY","31","g/dL","31","38","19.2386",19.2386,"mmol/L",19,24,"NORMAL","",5,"WEEK 4","TREATMENT","2013-11-08T11:32",32],
["CDISCPILOT01","LB","CDISC004",94,"MCV","Ery. Mean Corpuscular Volume","HEMATOLOGY","90","fL","80","100","90",90,"fL",80,100,"NORMAL","",5,"WEEK 4","TREATMENT","2013-11-08T11:32",32],
["CDISCPILOT01","LB","CDISC004",95,"MONO","Monocytes","HEMATOLOGY","0.69","10^9/L","0.12","0.92","0.69",0.69,"10^9/L",0.12,0.92,"NORMAL","",5,"WEEK 4","TREATMENT","2013-11-08T11:32",32],
["CDISCPILOT01","LB","CDISC004",98,"PLAT","Platelets","HEMATOLOGY","397","10^9/L","130","394","397",397,"10^9/L",130,394,"HIGH","",5,"WEEK 4","TREATMENT","2013-11-08T11:32",32],
["CDISCPILOT01","LB","CDISC004",100,"RBC","Erythrocytes","HEMATOLOGY","5.00","10^12/L","3.9","5.5","5",5,"10^12/L",3.9,5.5,"NORMAL","",5,"WEEK 4","TREATMENT","2013-11-08T11:32",32],
["CDISCPILOT01","LB","CDISC004",102,"WBC","Leukocytes","HEMATOLOGY","7.73","10^9/L","3.8","10.7","7.73",7.73,"10^9/L",3.8,10.7,"NORMAL","",5,"WEEK 4","TREATMENT","2013-11-08T11:32",32],
["CDISCPILOT01","LB","CDISC004",107,"BASO","Basophils","HEMATOLOGY","0.09","10^9/L","0","0.2","0.09",0.09,"10^9/L",0,0.2,"NORMAL","",7,"WEEK 6","TREATMENT","2013-11-19T13:22",43],
["CDISCPILOT01","LB","CDISC004",115,"EOS","Eosinophils","HEMATOLOGY","0.09","10^9/L","0","0.57","0.09",0.09,"10^9/L",0,0.57,"NORMAL","",7,"WEEK 6","TREATMENT","2013-11-19T13:22",43],
["CDISCPILOT01","LB","CDISC004",118,"HCT","Hematocrit","HEMATOLOGY","39.0","%","34","48","0.39",0.39,"",0.34,0.48,"NORMAL","",7,"WEEK 6","TREATMENT","2013-11-19T13:22",43],
["CDISCPILOT01","LB","CDISC004",119,"HGB","Hemoglobin","HEMATOLOGY","13.1","g/dL","11.5","15.8","8.12986",8.12986,"mmol/L",7.14,9.81,"NORMAL","",7,"WEEK 6","TREATMENT","2013-11-19T13:22",43],
["CDISCPILOT01","LB","CDISC004",121,"LYM","Lymphocytes","HEMATOLOGY","1.68","10^9/L","0.8","3","1.68",1.68,"10^9/L",0.8,3,"NORMAL","",7,"WEEK 6","TREATMENT","2013-11-19T13:22",43],
["CDISCPILOT01","LB","CDISC004",122,"MCH","Ery. Mean Corpuscular Hemoglobin","HEMATOLOGY","28","pg","26","34","1.73768",1.73768,"fmol",1.6,2.1,"NORMAL","",7,"WEEK 6","TREATMENT","2013-11-19T13:22",43],
["CDISCPILOT01","LB","CDISC004",123,"MCHC","Ery. Mean Corpuscular HGB Concentration","HEMATOLOGY","34","g/dL","31","38","21.1004",21.1004,"mmol/L",19,24,"NORMAL","",7,"WEEK 6","TREATMENT","2013-11-19T13:22",43],
["CDISCPILOT01","LB","CDISC004",124,"MCV","Ery. Mean Corpuscular Volume","HEMATOLOGY","84","fL","80","100","84",84,"fL",80,100,"NORMAL","",7,"WEEK 6","TREATMENT","2013-11-19T13:22",43],
["CDISCPILOT01","LB","CDISC004",125,"MONO","Monocytes","HEMATOLOGY","0.35","10^9/L","0.12","0.92","0.35",0.35,"10^9/L",0.12,0.92,"NORMAL","",7,"WEEK 6","TREATMENT","2013-11-19T13:22",43],
["CDISCPILOT01","LB","CDISC004",128,"PLAT","Platelets","HEMATOLOGY","388","10^9/L","130","394","388",388,"10^9/L",130,394,"NORMAL","",7,"WEEK 6","TREATMENT","2013-11-19T13:22",43],
["CDISCPILOT01","LB","CDISC004",130,"RBC","Erythrocytes","HEMATOLOGY","4.60","10^12/L","3.9","5.5","4.6",4.6,"10^12/L",3.9,5.5,"NORMAL","",7,"WEEK 6","TREATMENT","2013-11-19T13:22",43],
["CDISCPILOT01","LB","CDISC004",132,"WBC","Leukocytes","HEMATOLOGY","7.20","10^9/L","3.8","10.7","7.2",7.2,"10^9/L",3.8,10.7,"NORMAL","",7,"WEEK 6","TREATMENT","2013-11-19T13:22",43],
["CDISCPILOT01","LB","CDISC004",137,"BASO","Basophils","HEMATOLOGY","0.11","10^9/L","0","0.2","0.11",0.11,"10^9/L",0,0.2,"NORMAL","",8,"WEEK 8","TREATMENT","2013-12-03T12:27",57],
["CDISCPILOT01","LB","CDISC004",145,"EOS","Eosinophils","HEMATOLOGY","0.13","10^9/L","0","0.57","0.13",0.13,"10^9/L",0,0.57,"NORMAL","",8,"WEEK 8","TREATMENT","2013-12-03T12:27",57],
["CDISCPILOT01","LB","CDISC004",148,"HCT","Hematocrit","HEMATOLOGY","41.0","%","34","48","0.41",0.41,"",0.34,0.48,"NORMAL","",8,"WEEK 8","TREATMENT","2013-12-03T12:27",57],
["CDISCPILOT01","LB","CDISC004",149,"HGB","Hemoglobin","HEMATOLOGY","13.3","g/dL","11.5","15.8","8.25398",8.25398,"mmol/L",7.14,9.81,"NORMAL","",8,"WEEK 8","TREATMENT","2013-12-03T12:27",57],
["CDISCPILOT01","LB","CDISC004",151,"LYM","Lymphocytes","HEMATOLOGY","1.39","10^9/L","0.8","3","1.39",1.39,"10^9/L",0.8,3,"NORMAL","",8,"WEEK 8","TREATMENT","2013-12-03T12:27",57],
["CDISCPILOT01","LB","CDISC004",152,"MCH","Ery. Mean Corpuscular Hemoglobin","HEMATOLOGY","28","pg","26","34","1.73768",1.73768,"fmol",1.6,2.1,"NORMAL","",8,"WEEK 8","TREATMENT","2013-12-03T12:27",57],
["CDISCPILOT01","LB","CDISC004",153,"MCHC","Ery. Mean Corpuscular HGB Concentration","HEMATOLOGY","32","g/dL","31","38","19.8592",19.8592,"mmol/L",19,24,"NORMAL","",8,"WEEK 8","TREATMENT","2013-12-03T12:27",57],
["CDISCPILOT01","LB","CDISC004",154,"MCV","Ery. Mean Corpuscular Volume","HEMATOLOGY","87","fL","80","100","87",87,"fL",80,100,"NORMAL","",8,"WEEK 8","TREATMENT","2013-12-03T12:27",57],
["CDISCPILOT01","LB","CDISC004",155,"MONO","Monocytes","HEMATOLOGY","0.40","10^9/L","0.12","0.92","0.4",0.4,"10^9/L",0.12,0.92,"NORMAL","",8,"WEEK 8","TREATMENT","2013-12-03T12:27",57],
["CDISCPILOT01","LB","CDISC004",158,"PLAT","Platelets","HEMATOLOGY","444","10^9/L","130","394","444",444,"10^9/L",130,394,"HIGH","",8,"WEEK 8","TREATMENT","2013-12-03T12:27",57],
["CDISCPILOT01","LB","CDISC004",160,"RBC","Erythrocytes","HEMATOLOGY","4.80","10^12/L","3.9","5.5","4.8",4.8,"10^12/L",3.9,5.5,"NORMAL","",8,"WEEK 8","TREATMENT","2013-12-03T12:27",57],
["CDISCPILOT01","LB","CDISC004",162,"WBC","Leukocytes","HEMATOLOGY","7.06","10^9/L","3.8","10.7","7.06",7.06,"10^9/L",3.8,10.7,"NORMAL","",8,"WEEK 8","TREATMENT","2013-12-03T12:27",57],
["CDISCPILOT01","LB","CDISC004",167,"BASO","Basophils","HEMATOLOGY","0.06","10^9/L","0","0.2","0.06",0.06,"10^9/L",0,0.2,"NORMAL","",9,"WEEK 12","TREATMENT","2013-12-31T15:07",85],
["CDISCPILOT01","LB","CDISC004",176,"EOS","Eosinophils","HEMATOLOGY","0.15","10^9/L","0","0.57","0.15",0.15,"10^9/L",0,0.57,"NORMAL","",9,"WEEK 12","TREATMENT","2013-12-31T15:07",85],
["CDISCPILOT01","LB","CDISC004",179,"HCT","Hematocrit","HEMATOLOGY","43.0","%","34","48","0.43",0.43,"",0.34,0.48,"NORMAL","",9,"WEEK 12","TREATMENT","2013-12-31T15:07",85],
["CDISCPILOT01","LB","CDISC004",180,"HGB","Hemoglobin","HEMATOLOGY","14.1","g/dL","11.5","15.8","8.75046",8.75046,"mmol/L",7.14,9.81,"NORMAL","",9,"WEEK 12","TREATMENT","2013-12-31T15:07",85],
["CDISCPILOT01","LB","CDISC004",183,"LYM","Lymphocytes","HEMATOLOGY","1.68","10^9/L","0.8","3","1.68",1.68,"10^9/L",0.8,3,"NORMAL","",9,"WEEK 12","TREATMENT","2013-12-31T15:07",85],
["CDISCPILOT01","LB","CDISC004",184,"MCH","Ery. Mean Corpuscular Hemoglobin","HEMATOLOGY","29","pg","26","34","1.79974",1.79974,"fmol",1.6,2.1,"NORMAL","",9,"WEEK 12","TREATMENT","2013-12-31T15:07",85],
["CDISCPILOT01","LB","CDISC004",185,"MCHC","Ery. Mean Corpuscular HGB Concentration","HEMATOLOGY","33","g/dL","31","38","20.4798",20.4798,"mmol/L",19,24,"NORMAL","",9,"WEEK 12","TREATMENT","2013-12-31T15:07",85],
["CDISCPILOT01","LB","CDISC004",186,"MCV","Ery. Mean Corpuscular Volume","HEMATOLOGY","87","fL","80","100","87",87,"fL",80,100,"NORMAL","",9,"WEEK 12","TREATMENT","2013-12-31T15:07",85],
["CDISCPILOT01","LB","CDISC004",187,"MONO","Monocytes","HEMATOLOGY","0.44","10^9/L","0.12","0.92","0.44",0.44,"10^9/L",0.12,0.92,"NORMAL","",9,"WEEK 12","TREATMENT","2013-12-31T15:07",85],
["CDISCPILOT01","LB","CDISC004",191,"PLAT","Platelets","HEMATOLOGY","406","10^9/L","130","394","406",406,"10^9/L",130,394,"HIGH","",9,"WEEK 12","TREATMENT","2013-12-31T15:07",85],
["CDISCPILOT01","LB","CDISC004",193,"RBC","Erythrocytes","HEMATOLOGY","4.90","10^12/L","3.9","5.5","4.9",4.9,"10^12/L",3.9,5.5,"NORMAL","",9,"WEEK 12","TREATMENT","2013-12-31T15:07",85],
["CDISCPILOT01","LB","CDISC004",197,"WBC","Leukocytes","HEMATOLOGY","7.94","10^9/L","3.8","10.7","7.94",7.94,"10^9/L",3.8,10.7,"NORMAL","",9,"WEEK 12","TREATMENT","2013-12-31T15:07",85],
["CDISCPILOT01","LB","CDISC004",202,"BASO","Basophils","HEMATOLOGY","0.04","10^9/L","0","0.2","0.04",0.04,"10^9/L",0,0.2,"NORMAL","",10,"WEEK 16","TREATMENT","2014-01-27T11:49",112],
["CDISCPILOT01","LB","CDISC004",210,"EOS","Eosinophils","HEMATOLOGY","0.05","10^9/L","0","0.57","0.05",0.05,"10^9/L",0,0.57,"NORMAL","",10,"WEEK 16","TREATMENT","2014-01-27T11:49",112],
["CDISCPILOT01","LB","CDISC004",213,"HCT","Hematocrit","HEMATOLOGY","43.0","%","34","48","0.43",0.43,"",0.34,0.48,"NORMAL","",10,"WEEK 16","TREATMENT","2014-01-27T11:49",112],
["CDISCPILOT01","LB","CDISC004",214,"HGB","Hemoglobin","HEMATOLOGY","13.8","g/dL","11.5","15.8","8.56428",8.56428,"mmol/L",7.14,9.81,"NORMAL","",10,"WEEK 16","TREATMENT","2014-01-27T11:49",112],
["CDISCPILOT01","LB","CDISC004",216,"LYM","Lymphocytes","HEMATOLOGY","1.25","10^9/L","0.8","3","1.25",1.25,"10^9/L",0.8,3,"NORMAL","",10,"WEEK 16","TREATMENT","2014-01-27T11:49",112],
["CDISCPILOT01","LB","CDISC004",217,"MCH","Ery. Mean Corpuscular Hemoglobin","HEMATOLOGY","27","pg","26","34","1.67562",1.67562,"fmol",1.6,2.1,"NORMAL","",10,"WEEK 16","TREATMENT","2014-01-27T11:49",112],
["CDISCPILOT01","LB","CDISC004",218,"MCHC","Ery. Mean Corpuscular HGB Concentration","HEMATOLOGY","32","g/dL","31","38","19.8592",19.8592,"mmol/L",19,24,"NORMAL","",10,"WEEK 16","TREATMENT","2014-01-27T11:49",112],
["CDISCPILOT01","LB","CDISC004",219,"MCV","Ery. Mean Corpuscular Volume","HEMATOLOGY","84","fL","80","100","84",84,"fL",80,100,"NORMAL","",10,"WEEK 16","TREATMENT","2014-01-27T11:49",112],
["CDISCPILOT01","LB","CDISC004",220,"MONO","Monocytes","HEMATOLOGY","0.50","10^9/L","0.12","0.92","0.5",0.5,"10^9/L",0.12,0.92,"NORMAL","",10,"WEEK 16","TREATMENT","2014-01-27T11:49",112],
["CDISCPILOT01","LB","CDISC004",223,"PLAT","Platelets","HEMATOLOGY","362","10^9/L","130","394","362",362,"10^9/L",130,394,"NORMAL","",10,"WEEK 16","TREATMENT","2014-01-27T11:49",112],
["CDISCPILOT01","LB","CDISC004",225,"RBC","Erythrocytes","HEMATOLOGY","5.10","10^12/L","3.9","5.5","5.1",5.1,"10^12/L",3.9,5.5,"NORMAL","",10,"WEEK 16","TREATMENT","2014-01-27T11:49",112],
["CDISCPILOT01","LB","CDISC004",227,"WBC","Leukocytes","HEMATOLOGY","7.58","10^9/L","3.8","10.7","7.58",7.58,"10^9/L",3.8,10.7,"NORMAL","",10,"WEEK 16","TREATMENT","2014-01-27T11:49",112],
["CDISCPILOT01","LB","CDISC004",232,"BASO","Basophils","HEMATOLOGY","0.07","10^9/L","0","0.2","0.07",0.07,"10^9/L",0,0.2,"NORMAL","",11,"WEEK 20","TREATMENT","2014-02-25T08:44",141],
["CDISCPILOT01","LB","CDISC004",240,"EOS","Eosinophils","HEMATOLOGY","0.12","10^9/L","0","0.57","0.12",0.12,"10^9/L",0,0.57,"NORMAL","",11,"WEEK 20","TREATMENT","2014-02-25T08:44",141],
["CDISCPILOT01","LB","CDISC004",243,"HCT","Hematocrit","HEMATOLOGY","45.0","%","34","48","0.45",0.45,"",0.34,0.48,"NORMAL","",11,"WEEK 20","TREATMENT","2014-02-25T08:44",141],
["CDISCPILOT01","LB","CDISC004",244,"HGB","Hemoglobin","HEMATOLOGY","14.4","g/dL","11.5","15.8","8.93664",8.93664,"mmol/L",7.14,9.81,"NORMAL","",11,"WEEK 20","TREATMENT","2014-02-25T08:44",141],
["CDISCPILOT01","LB","CDISC004",246,"LYM","Lymphocytes","HEMATOLOGY","1.27","10^9/L","0.8","3","1.27",1.27,"10^9/L",0.8,3,"NORMAL","",11,"WEEK 20","TREATMENT","2014-02-25T08:44",141],
["CDISCPILOT01","LB","CDISC004",247,"MCH","Ery. Mean Corpuscular Hemoglobin","HEMATOLOGY","28","pg","26","34","1.73768",1.73768,"fmol",1.6,2.1,"NORMAL","",11,"WEEK 20","TREATMENT","2014-02-25T08:44",141],
["CDISCPILOT01","LB","CDISC004",248,"MCHC","Ery. Mean Corpuscular HGB Concentration","HEMATOLOGY","32","g/dL","31","38","19.8592",19.8592,"mmol/L",19,24,"NORMAL","",11,"WEEK 20","TREATMENT","2014-02-25T08:44",141],
["CDISCPILOT01","LB","CDISC004",249,"MCV","Ery. Mean Corpuscular Volume","HEMATOLOGY","87","fL","80","100","87",87,"fL",80,100,"NORMAL","",11,"WEEK 20","TREATMENT","2014-02-25T08:44",141],
["CDISCPILOT01","LB","CDISC004",250,"MONO","Monocytes","HEMATOLOGY","0.49","10^9/L","0.12","0.92","0.49",0.49,"10^9/L",0.12,0.92,"NORMAL","",11,"WEEK 20","TREATMENT","2014-02-25T08:44",141],
["CDISCPILOT01","LB","CDISC004",253,"PLAT","Platelets","HEMATOLOGY","399","10^9/L","130","394","399",399,"10^9/L",130,394,"HIGH","",11,"WEEK 20","TREATMENT","2014-02-25T08:44",141],
["CDISCPILOT01","LB","CDISC004",255,"RBC","Erythrocytes","HEMATOLOGY","5.20","10^12/L","3.9","5.5","5.2",5.2,"10^12/L",3.9,5.5,"NORMAL","",11,"WEEK 20","TREATMENT","2014-02-25T08:44",141],
["CDISCPILOT01","LB","CDISC004",257,"WBC","Leukocytes","HEMATOLOGY","6.55","10^9/L","3.8","10.7","6.55",6.55,"10^9/L",3.8,10.7,"NORMAL","",11,"WEEK 20","TREATMENT","2014-02-25T08:44",141],
["CDISCPILOT01","LB","CDISC004",262,"BASO","Basophils","HEMATOLOGY","0.08","10^9/L","0","0.2","0.08",0.08,"10^9/L",0,0.2,"NORMAL","",12,"WEEK 24","TREATMENT","2014-03-18T14:12",162],
["CDISCPILOT01","LB","CDISC004",271,"EOS","Eosinophils","HEMATOLOGY","0.25","10^9/L","0","0.57","0.25",0.25,"10^9/L",0,0.57,"NORMAL","",12,"WEEK 24","TREATMENT","2014-03-18T14:12",162],
["CDISCPILOT01","LB","CDISC004",274,"HCT","Hematocrit","HEMATOLOGY","41.0","%","34","48","0.41",0.41,"",0.34,0.48,"NORMAL","",12,"WEEK 24","TREATMENT","2014-03-18T14:12",162],
["CDISCPILOT01","LB","CDISC004",275,"HGB","Hemoglobin","HEMATOLOGY","13.8","g/dL","11.5","15.8","8.56428",8.56428,"mmol/L",7.14,9.81,"NORMAL","",12,"WEEK 24","TREATMENT","2014-03-18T14:12",162],
["CDISCPILOT01","LB","CDISC004",278,"LYM","Lymphocytes","HEMATOLOGY","1.53","10^9/L","0.8","3","1.53",1.53,"10^9/L",0.8,3,"NORMAL","",12,"WEEK 24","TREATMENT","2014-03-18T14:12",162],
["CDISCPILOT01","LB","CDISC004",279,"MCH","Ery. Mean Corpuscular Hemoglobin","HEMATOLOGY","29","pg","26","34","1.79974",1.79974,"fmol",1.6,2.1,"NORMAL","",12,"WEEK 24","TREATMENT","2014-03-18T14:12",162],
["CDISCPILOT01","LB","CDISC004",280,"MCHC","Ery. Mean Corpuscular HGB Concentration","HEMATOLOGY","34","g/dL","31","38","21.1004",21.1004,"mmol/L",19,24,"NORMAL","",12,"WEEK 24","TREATMENT","2014-03-18T14:12",162],
["CDISCPILOT01","LB","CDISC004",281,"MCV","Ery. Mean Corpuscular Volume","HEMATOLOGY","85","fL","80","100","85",85,"fL",80,100,"NORMAL","",12,"WEEK 24","TREATMENT","2014-03-18T14:12",162],
["CDISCPILOT01","LB","CDISC004",282,"MONO","Monocytes","HEMATOLOGY","0.47","10^9/L","0.12","0.92","0.47",0.47,"10^9/L",0.12,0.92,"NORMAL","",12,"WEEK 24","TREATMENT","2014-03-18T14:12",162],
["CDISCPILOT01","LB","CDISC004",286,"PLAT","Platelets","HEMATOLOGY","361","10^9/L","130","394","361",361,"10^9/L",130,394,"NORMAL","",12,"WEEK 24","TREATMENT","2014-03-18T14:12",162],
["CDISCPILOT01","LB","CDISC004",288,"RBC","Erythrocytes","HEMATOLOGY","4.80","10^12/L","3.9","5.5","4.8",4.8,"10^12/L",3.9,5.5,"NORMAL","",12,"WEEK 24","TREATMENT","2014-03-18T14:12",162],
["CDISCPILOT01","LB","CDISC004",292,"WBC","Leukocytes","HEMATOLOGY","7.66","10^9/L","3.8","10.7","7.66",7.66,"10^9/L",3.8,10.7,"NORMAL","",12,"WEEK 24","TREATMENT","2014-03-18T14:12",162],
["CDISCPILOT01","LB","CDISC005",5,"BASO","Basophils","HEMATOLOGY","0.04","10^9/L","0","0.2","0.04",0.04,"10^9/L",0,0.2,"NORMAL","Y",1,"SCREENING 1","SCREENING","2013-01-22T11:43",-13],
["CDISCPILOT01","LB","CDISC005",14,"EOS","Eosinophils","HEMATOLOGY","0.07","10^9/L","0","0.57","0.07",0.07,"10^9/L",0,0.57,"NORMAL","Y",1,"SCREENING 1","SCREENING","2013-01-22T11:43",-13],
["CDISCPILOT01","LB","CDISC005",17,"HCT","Hematocrit","HEMATOLOGY","40.0","%","34","48","0.4",0.4,"",0.34,0.48,"NORMAL","Y",1,"SCREENING 1","SCREENING","2013-01-22T11:43",-13],
["CDISCPILOT01","LB","CDISC005",18,"HGB","Hemoglobin","HEMATOLOGY","13.7","g/dL","11.5","15.8","8.50222",8.50222,"mmol/L",7.14,9.81,"NORMAL","Y",1,"SCREENING 1","SCREENING","2013-01-22T11:43",-13],
["CDISCPILOT01","LB","CDISC005",21,"LYM","Lymphocytes","HEMATOLOGY","1.77","10^9/L","0.8","3","1.77",1.77,"10^9/L",0.8,3,"NORMAL","Y",1,"SCREENING 1","SCREENING","2013-01-22T11:43",-13],
["CDISCPILOT01","LB","CDISC005",22,"MCH","Ery. Mean Corpuscular Hemoglobin","HEMATOLOGY","32","pg","26","34","1.98592",1.98592,"fmol",1.6,2.1,"NORMAL","Y",1,"SCREENING 1","SCREENING","2013-01-22T11:43",-13],
["CDISCPILOT01","LB","CDISC005",23,"MCHC","Ery. Mean Corpuscular HGB Concentration","HEMATOLOGY","34","g/dL","31","38","21.1004",21.1004,"mmol/L",19,24,"NORMAL","Y",1,"SCREENING 1","SCREENING","2013-01-22T11:43",-13],
["CDISCPILOT01","LB","CDISC005",24,"MCV","Ery. Mean Corpuscular Volume","HEMATOLOGY","94","fL","80","100","94",94,"fL",80,100,"NORMAL","Y",1,"SCREENING 1","SCREENING","2013-01-22T11:43",-13],
["CDISCPILOT01","LB","CDISC005",25,"MONO","Monocytes","HEMATOLOGY","0.26","10^9/L","0.12","0.92","0.26",0.26,"10^9/L",0.12,0.92,"NORMAL","Y",1,"SCREENING 1","SCREENING","2013-01-22T11:43",-13],
["CDISCPILOT01","LB","CDISC005",29,"PLAT","Platelets","HEMATOLOGY","341","10^9/L","130","394","341",341,"10^9/L",130,394,"NORMAL","Y",1,"SCREENING 1","SCREENING","2013-01-22T11:43",-13],
["CDISCPILOT01","LB","CDISC005",31,"RBC","Erythrocytes","HEMATOLOGY","4.30","10^12/L","3.9","5.5","4.3",4.3,"10^12/L",3.9,5.5,"NORMAL","Y",1,"SCREENING 1","SCREENING","2013-01-22T11:43",-13],
["CDISCPILOT01","LB","CDISC005",37,"WBC","Leukocytes","HEMATOLOGY","5.08","10^9/L","3.8","10.7","5.08",5.08,"10^9/L",3.8,10.7,"NORMAL","Y",1,"SCREENING 1","SCREENING","2013-01-22T11:43",-13],
["CDISCPILOT01","LB","CDISC005",42,"BASO","Basophils","HEMATOLOGY","0.03","10^9/L","0","0.2","0.03",0.03,"10^9/L",0,0.2,"NORMAL","",4,"WEEK 2","TREATMENT","2013-02-19T09:40",16],
["CDISCPILOT01","LB","CDISC005",51,"EOS","Eosinophils","HEMATOLOGY","0.10","10^9/L","0","0.57","0.1",0.1,"10^9/L",0,0.57,"NORMAL","",4,"WEEK 2","TREATMENT","2013-02-19T09:40",16],
["CDISCPILOT01","LB","CDISC005",54,"HCT","Hematocrit","HEMATOLOGY","40.0","%","34","48","0.4",0.4,"",0.34,0.48,"NORMAL","",4,"WEEK 2","TREATMENT","2013-02-19T09:40",16],
["CDISCPILOT01","LB","CDISC005",55,"HGB","Hemoglobin","HEMATOLOGY","12.9","g/dL","11.5","15.8","8.00574",8.00574,"mmol/L",7.14,9.81,"NORMAL","",4,"WEEK 2","TREATMENT","2013-02-19T09:40",16],
["CDISCPILOT01","LB","CDISC005",58,"LYM","Lymphocytes","HEMATOLOGY","1.28","10^9/L","0.8","3","1.28",1.28,"10^9/L",0.8,3,"NORMAL","",4,"WEEK 2","TREATMENT","2013-02-19T09:40",16],
["CDISCPILOT01","LB","CDISC005",59,"MCH","Ery. Mean Corpuscular Hemoglobin","HEMATOLOGY","30","pg","26","34","1.8618",1.8618,"fmol",1.6,2.1,"NORMAL","",4,"WEEK 2","TREATMENT","2013-02-19T09:40",16],
["CDISCPILOT01","LB","CDISC005",60,"MCHC","Ery. Mean Corpuscular HGB Concentration","HEMATOLOGY","32","g/dL","31","38","19.8592",19.8592,"mmol/L",19,24,"NORMAL","",4,"WEEK 2","TREATMENT","2013-02-19T09:40",16],
["CDISCPILOT01","LB","CDISC005",61,"MCV","Ery. Mean Corpuscular Volume","HEMATOLOGY","92","fL","80","100","92",92,"fL",80,100,"NORMAL","",4,"WEEK 2","TREATMENT","2013-02-19T09:40",16],
["CDISCPILOT01","LB","CDISC005",62,"MONO","Monocytes","HEMATOLOGY","0.31","10^9/L","0.12","0.92","0.31",0.31,"10^9/L",0.12,0.92,"NORMAL","",4,"WEEK 2","TREATMENT","2013-02-19T09:40",16],
["CDISCPILOT01","LB","CDISC005",66,"PLAT","Platelets","HEMATOLOGY","341","10^9/L","130","394","341",341,"10^9/L",130,394,"NORMAL","",4,"WEEK 2","TREATMENT","2013-02-19T09:40",16],
["CDISCPILOT01","LB","CDISC005",68,"RBC","Erythrocytes","HEMATOLOGY","4.40","10^12/L","3.9","5.5","4.4",4.4,"10^12/L",3.9,5.5,"NORMAL","",4,"WEEK 2","TREATMENT","2013-02-19T09:40",16],
["CDISCPILOT01","LB","CDISC005",72,"WBC","Leukocytes","HEMATOLOGY","6.73","10^9/L","3.8","10.7","6.73",6.73,"10^9/L",3.8,10.7,"NORMAL","",4,"WEEK 2","TREATMENT","2013-02-19T09:40",16],
["CDISCPILOT01","LB","CDISC005",77,"BASO","Basophils","HEMATOLOGY","0.03","10^9/L","0","0.2","0.03",0.03,"10^9/L",0,0.2,"NORMAL","",5,"WEEK 4","TREATMENT","2013-03-12T11:50",37],
["CDISCPILOT01","LB","CDISC005",85,"EOS","Eosinophils","HEMATOLOGY","0.06","10^9/L","0","0.57","0.06",0.06,"10^9/L",0,0.57,"NORMAL","",5,"WEEK 4","TREATMENT","2013-03-12T11:50",37],
["CDISCPILOT01","LB","CDISC005",88,"HCT","Hematocrit","HEMATOLOGY","38.0","%","34","48","0.38",0.38,"",0.34,0.48,"NORMAL","",5,"WEEK 4","TREATMENT","2013-03-12T11:50",37],
["CDISCPILOT01","LB","CDISC005",89,"HGB","Hemoglobin","HEMATOLOGY","12.5","g/dL","11.5","15.8","7.7575",7.7575,"mmol/L",7.14,9.81,"NORMAL","",5,"WEEK 4","TREATMENT","2013-03-12T11:50",37],
["CDISCPILOT01","LB","CDISC005",91,"LYM","Lymphocytes","HEMATOLOGY","1.78","10^9/L","0.8","3","1.78",1.78,"10^9/L",0.8,3,"NORMAL","",5,"WEEK 4","TREATMENT","2013-03-12T11:50",37],
["CDISCPILOT01","LB","CDISC005",92,"MCH","Ery. Mean Corpuscular Hemoglobin","HEMATOLOGY","31","pg","26","34","1.92386",1.92386,"fmol",1.6,2.1,"NORMAL","",5,"WEEK 4","TREATMENT","2013-03-12T11:50",37],
["CDISCPILOT01","LB","CDISC005",93,"MCHC","Ery. Mean Corpuscular HGB Concentration","HEMATOLOGY","33","g/dL","31","38","20.4798",20.4798,"mmol/L",19,24,"NORMAL","",5,"WEEK 4","TREATMENT","2013-03-12T11:50",37],
["CDISCPILOT01","LB","CDISC005",94,"MCV","Ery. Mean Corpuscular Volume","HEMATOLOGY","93","fL","80","100","93",93,"fL",80,100,"NORMAL","",5,"WEEK 4","TREATMENT","2013-03-12T11:50",37],
["CDISCPILOT01","LB","CDISC005",95,"MONO","Monocytes","HEMATOLOGY","0.29","10^9/L","0.12","0.92","0.29",0.29,"10^9/L",0.12,0.92,"NORMAL","",5,"WEEK 4","TREATMENT","2013-03-12T11:50",37],
["CDISCPILOT01","LB","CDISC005",98,"PLAT","Platelets","HEMATOLOGY","308","10^9/L","130","394","308",308,"10^9/L",130,394,"NORMAL","",5,"WEEK 4","TREATMENT","2013-03-12T11:50",37],
["CDISCPILOT01","LB","CDISC005",100,"RBC","Erythrocytes","HEMATOLOGY","4.10","10^12/L","3.9","5.5","4.1",4.1,"10^12/L",3.9,5.5,"NORMAL","",5,"WEEK 4","TREATMENT","2013-03-12T11:50",37],
["CDISCPILOT01","LB","CDISC005",102,"WBC","Leukocytes","HEMATOLOGY","5.28","10^9/L","3.8","10.7","5.28",5.28,"10^9/L",3.8,10.7,"NORMAL","",5,"WEEK 4","TREATMENT","2013-03-12T11:50",37],
["CDISCPILOT01","LB","CDISC005",107,"BASO","Basophils","HEMATOLOGY","0.04","10^9/L","0","0.2","0.04",0.04,"10^9/L",0,0.2,"NORMAL","",7,"WEEK 6","TREATMENT","2013-03-19T08:57",44],
["CDISCPILOT01","LB","CDISC005",115,"EOS","Eosinophils","HEMATOLOGY","0.05","10^9/L","0","0.57","0.05",0.05,"10^9/L",0,0.57,"NORMAL","",7,"WEEK 6","TREATMENT","2013-03-19T08:57",44],
["CDISCPILOT01","LB","CDISC005",118,"HCT","Hematocrit","HEMATOLOGY","39.0","%","34","48","0.39",0.39,"",0.34,0.48,"NORMAL","",7,"WEEK 6","TREATMENT","2013-03-19T08:57",44],
["CDISCPILOT01","LB","CDISC005",119,"HGB","Hemoglobin","HEMATOLOGY","13.0","g/dL","11.5","15.8","8.0678",8.0678,"mmol/L",7.14,9.81,"NORMAL","",7,"WEEK 6","TREATMENT","2013-03-19T08:57",44],
["CDISCPILOT01","LB","CDISC005",121,"LYM","Lymphocytes","HEMATOLOGY","1.36","10^9/L","0.8","3","1.36",1.36,"10^9/L",0.8,3,"NORMAL","",7,"WEEK 6","TREATMENT","2013-03-19T08:57",44],
["CDISCPILOT01","LB","CDISC005",122,"MCH","Ery. Mean Corpuscular Hemoglobin","HEMATOLOGY","31","pg","26","34","1.92386",1.92386,"fmol",1.6,2.1,"NORMAL","",7,"WEEK 6","TREATMENT","2013-03-19T08:57",44],
["CDISCPILOT01","LB","CDISC005",123,"MCHC","Ery. Mean Corpuscular HGB Concentration","HEMATOLOGY","34","g/dL","31","38","21.1004",21.1004,"mmol/L",19,24,"NORMAL","",7,"WEEK 6","TREATMENT","2013-03-19T08:57",44],
["CDISCPILOT01","LB","CDISC005",124,"MCV","Ery. Mean Corpuscular Volume","HEMATOLOGY","91","fL","80","100","91",91,"fL",80,100,"NORMAL","",7,"WEEK 6","TREATMENT","2013-03-19T08:57",44],
["CDISCPILOT01","LB","CDISC005",125,"MONO","Monocytes","HEMATOLOGY","0.27","10^9/L","0.12","0.92","0.27",0.27,"10^9/L",0.12,0.92,"NORMAL","",7,"WEEK 6","TREATMENT","2013-03-19T08:57",44],
["CDISCPILOT01","LB","CDISC005",128,"PLAT","Platelets","HEMATOLOGY","330","10^9/L","130","394","330",330,"10^9/L",130,394,"NORMAL","",7,"WEEK 6","TREATMENT","2013-03-19T08:57",44],
["CDISCPILOT01","LB","CDISC005",130,"RBC","Erythrocytes","HEMATOLOGY","4.30","10^12/L","3.9","5.5","4.3",4.3,"10^12/L",3.9,5.5,"NORMAL","",7,"WEEK 6","TREATMENT","2013-03-19T08:57",44],
["CDISCPILOT01","LB","CDISC005",132,"WBC","Leukocytes","HEMATOLOGY","4.56","10^9/L","3.8","10.7","4.56",4.56,"10^9/L",3.8,10.7,"NORMAL","",7,"WEEK 6","TREATMENT","2013-03-19T08:57",44],
["CDISCPILOT01","LB","CDISC005",137,"BASO","Basophils","HEMATOLOGY","0.05","10^9/L","0","0.2","0.05",0.05,"10^9/L",0,0.2,"NORMAL","",8,"WEEK 8","TREATMENT","2013-04-02T10:32",58],
["CDISCPILOT01","LB","CDISC005",145,"EOS","Eosinophils","HEMATOLOGY","0.13","10^9/L","0","0.57","0.13",0.13,"10^9/L",0,0.57,"NORMAL","",8,"WEEK 8","TREATMENT","2013-04-02T10:32",58],
["CDISCPILOT01","LB","CDISC005",148,"HCT","Hematocrit","HEMATOLOGY","40.0","%","34","48","0.4",0.4,"",0.34,0.48,"NORMAL","",8,"WEEK 8","TREATMENT","2013-04-02T10:32",58],
["CDISCPILOT01","LB","CDISC005",149,"HGB","Hemoglobin","HEMATOLOGY","12.6","g/dL","11.5","15.8","7.81956",7.81956,"mmol/L",7.14,9.81,"NORMAL","",8,"WEEK 8","TREATMENT","2013-04-02T10:32",58],
["CDISCPILOT01","LB","CDISC005",151,"LYM","Lymphocytes","HEMATOLOGY","1.59","10^9/L","0.8","3","1.59",1.59,"10^9/L",0.8,3,"NORMAL","",8,"WEEK 8","TREATMENT","2013-04-02T10:32",58],
["CDISCPILOT01","LB","CDISC005",152,"MCH","Ery. Mean Corpuscular Hemoglobin","HEMATOLOGY","29","pg","26","34","1.79974",1.79974,"fmol",1.6,2.1,"NORMAL","",8,"WEEK 8","TREATMENT","2013-04-02T10:32",58],
["CDISCPILOT01","LB","CDISC005",153,"MCHC","Ery. Mean Corpuscular HGB Concentration","HEMATOLOGY","32","g/dL","31","38","19.8592",19.8592,"mmol/L",19,24,"NORMAL","",8,"WEEK 8","TREATMENT","2013-04-02T10:32",58],
["CDISCPILOT01","LB","CDISC005",154,"MCV","Ery. Mean Corpuscular Volume","HEMATOLOGY","90","fL","80","100","90",90,"fL",80,100,"NORMAL","",8,"WEEK 8","TREATMENT","2013-04-02T10:32",58],
["CDISCPILOT01","LB","CDISC005",155,"MONO","Monocytes","HEMATOLOGY","0.23","10^9/L","0.12","0.92","0.23",0.23,"10^9/L",0.12,0.92,"NORMAL","",8,"WEEK 8","TREATMENT","2013-04-02T10:32",58],
["CDISCPILOT01","LB","CDISC005",158,"PLAT","Platelets","HEMATOLOGY","356","10^9/L","130","394","356",356,"10^9/L",130,394,"NORMAL","",8,"WEEK 8","TREATMENT","2013-04-02T10:32",58],
["CDISCPILOT01","LB","CDISC005",160,"RBC","Erythrocytes","HEMATOLOGY","4.40","10^12/L","3.9","5.5","4.4",4.4,"10^12/L",3.9,5.5,"NORMAL","",8,"WEEK 8","TREATMENT","2013-04-02T10:32",58],
["CDISCPILOT01","LB","CDISC005",162,"WBC","Leukocytes","HEMATOLOGY","4.48","10^9/L","3.8","10.7","4.48",4.48,"10^9/L",3.8,10.7,"NORMAL","",8,"WEEK 8","TREATMENT","2013-04-02T10:32",58],
["CDISCPILOT01","LB","CDISC005",167,"BASO","Basophils","HEMATOLOGY","0.03","10^9/L","0","0.2","0.03",0.03,"10^9/L",0,0.2,"NORMAL","",9,"WEEK 12","TREATMENT","2013-04-30T13:14",86],
["CDISCPILOT01","LB","CDISC005",176,"EOS","Eosinophils","HEMATOLOGY","0.29","10^9/L","0","0.57","0.29",0.29,"10^9/L",0,0.57,"NORMAL","",9,"WEEK 12","TREATMENT","2013-04-30T13:14",86],
["CDISCPILOT01","LB","CDISC005",179,"HCT","Hematocrit","HEMATOLOGY","38.0","%","34","48","0.38",0.38,"",0.34,0.48,"NORMAL","",9,"WEEK 12","TREATMENT","2013-04-30T13:14",86],
["CDISCPILOT01","LB","CDISC005",180,"HGB","Hemoglobin","HEMATOLOGY","12.9","g/dL","11.5","15.8","8.00574",8.00574,"mmol/L",7.14,9.81,"NORMAL","",9,"WEEK 12","TREATMENT","2013-04-30T13:14",86],
["CDISCPILOT01","LB","CDISC005",183,"LYM","Lymphocytes","HEMATOLOGY","1.72","10^9/L","0.8","3","1.72",1.72,"10^9/L",0.8,3,"NORMAL","",9,"WEEK 12","TREATMENT","2013-04-30T13:14",86],
["CDISCPILOT01","LB","CDISC005",184,"MCH","Ery. Mean Corpuscular Hemoglobin","HEMATOLOGY","30","pg","26","34","1.8618",1.8618,"fmol",1.6,2.1,"NORMAL","",9,"WEEK 12","TREATMENT","2013-04-30T13:14",86],
["CDISCPILOT01","LB","CDISC005",185,"MCHC","Ery. Mean Corpuscular HGB Concentration","HEMATOLOGY","34","g/dL","31","38","21.1004",21.1004,"mmol/L",19,24,"NORMAL","",9,"WEEK 12","TREATMENT","2013-04-30T13:14",86],
["CDISCPILOT01","LB","CDISC005",186,"MCV","Ery. Mean Corpuscular Volume","HEMATOLOGY","90","fL","80","100","90",90,"fL",80,100,"NORMAL","",9,"WEEK 12","TREATMENT","2013-04-30T13:14",86],
["CDISCPILOT01","LB","CDISC005",187,"MONO","Monocytes","HEMATOLOGY","0.31","10^9/L","0.12","0.92","0.31",0.31,"10^9/L",0.12,0.92,"NORMAL","",9,"WEEK 12","TREATMENT","2013-04-30T13:14",86],
["CDISCPILOT01","LB","CDISC005",191,"PLAT","Platelets","HEMATOLOGY","296","10^9/L","130","394","296",296,"10^9/L",130,394,"NORMAL","",9,"WEEK 12","TREATMENT","2013-04-30T13:14",86],
["CDISCPILOT01","LB","CDISC005",193,"RBC","Erythrocytes","HEMATOLOGY","4.20","10^12/L","3.9","5.5","4.2",4.2,"10^12/L",3.9,5.5,"NORMAL","",9,"WEEK 12","TREATMENT","2013-04-30T13:14",86],
["CDISCPILOT01","LB","CDISC005",197,"WBC","Leukocytes","HEMATOLOGY","5.67","10^9/L","3.8","10.7","5.67",5.67,"10^9/L",3.8,10.7,"NORMAL","",9,"WEEK 12","TREATMENT","2013-04-30T13:14",86],
["CDISCPILOT01","LB","CDISC005",202,"BASO","Basophils","HEMATOLOGY","0.03","10^9/L","0","0.2","0.03",0.03,"10^9/L",0,0.2,"NORMAL","",10,"WEEK 16","TREATMENT","2013-05-30T10:33",116],
["CDISCPILOT01","LB","CDISC005",210,"EOS","Eosinophils","HEMATOLOGY","0.22","10^9/L","0","0.57","0.22",0.22,"10^9/L",0,0.57,"NORMAL","",10,"WEEK 16","TREATMENT","2013-05-30T10:33",116],
["CDISCPILOT01","LB","CDISC005",213,"HCT","Hematocrit","HEMATOLOGY","39.0","%","34","48","0.39",0.39,"",0.34,0.48,"NORMAL","",10,"WEEK 16","TREATMENT","2013-05-30T10:33",116],
["CDISCPILOT01","LB","CDISC005",214,"HGB","Hemoglobin","HEMATOLOGY","13.4","g/dL","11.5","15.8","8.31604",8.31604,"mmol/L",7.14,9.81,"NORMAL","",10,"WEEK 16","TREATMENT","2013-05-30T10:33",116],
["CDISCPILOT01","LB","CDISC005",216,"LYM","Lymphocytes","HEMATOLOGY","1.77","10^9/L","0.8","3","1.77",1.77,"10^9/L",0.8,3,"NORMAL","",10,"WEEK 16","TREATMENT","2013-05-30T10:33",116],
["CDISCPILOT01","LB","CDISC005",217,"MCH","Ery. Mean Corpuscular Hemoglobin","HEMATOLOGY","30","pg","26","34","1.8618",1.8618,"fmol",1.6,2.1,"NORMAL","",10,"WEEK 16","TREATMENT","2013-05-30T10:33",116],
["CDISCPILOT01","LB","CDISC005",218,"MCHC","Ery. Mean Corpuscular HGB Concentration","HEMATOLOGY","35","g/dL","31","38","21.721",21.721,"mmol/L",19,24,"NORMAL","",10,"WEEK 16","TREATMENT","2013-05-30T10:33",116],
["CDISCPILOT01","LB","CDISC005",219,"MCV","Ery. Mean Corpuscular Volume","HEMATOLOGY","87","fL","80","100","87",87,"fL",80,100,"NORMAL","",10,"WEEK 16","TREATMENT","2013-05-30T10:33",116],
["CDISCPILOT01","LB","CDISC005",220,"MONO","Monocytes","HEMATOLOGY","0.35","10^9/L","0.12","0.92","0.35",0.35,"10^9/L",0.12,0.92,"NORMAL","",10,"WEEK 16","TREATMENT","2013-05-30T10:33",116],
["CDISCPILOT01","LB","CDISC005",223,"PLAT","Platelets","HEMATOLOGY","346","10^9/L","130","394","346",346,"10^9/L",130,394,"NORMAL","",10,"WEEK 16","TREATMENT","2013-05-30T10:33",116],
["CDISCPILOT01","LB","CDISC005",225,"RBC","Erythrocytes","HEMATOLOGY","4.40","10^12/L","3.9","5.5","4.4",4.4,"10^12/L",3.9,5.5,"NORMAL","",10,"WEEK 16","TREATMENT","2013-05-30T10:33",116],
["CDISCPILOT01","LB","CDISC005",227,"WBC","Leukocytes","HEMATOLOGY","5.07","10^9/L","3.8","10.7","5.07",5.07,"10^9/L",3.8,10.7,"NORMAL","",10,"WEEK 16","TREATMENT","2013-05-30T10:33",116],
["CDISCPILOT01","LB","CDISC005",232,"BASO","Basophils","HEMATOLOGY","0.05","10^9/L","0","0.2","0.05",0.05,"10^9/L",0,0.2,"NORMAL","",11,"WEEK 20","TREATMENT","2013-06-25T15:07",142],
["CDISCPILOT01","LB","CDISC005",240,"EOS","Eosinophils","HEMATOLOGY","0.21","10^9/L","0","0.57","0.21",0.21,"10^9/L",0,0.57,"NORMAL","",11,"WEEK 20","TREATMENT","2013-06-25T15:07",142],
["CDISCPILOT01","LB","CDISC005",243,"HCT","Hematocrit","HEMATOLOGY","40.0","%","34","48","0.4",0.4,"",0.34,0.48,"NORMAL","",11,"WEEK 20","TREATMENT","2013-06-25T15:07",142],
["CDISCPILOT01","LB","CDISC005",244,"HGB","Hemoglobin","HEMATOLOGY","13.1","g/dL","11.5","15.8","8.12986",8.12986,"mmol/L",7.14,9.81,"NORMAL","",11,"WEEK 20","TREATMENT","2013-06-25T15:07",142],
["CDISCPILOT01","LB","CDISC005",246,"LYM","Lymphocytes","HEMATOLOGY","1.90","10^9/L","0.8","3","1.9",1.9,"10^9/L",0.8,3,"NORMAL","",11,"WEEK 20","TREATMENT","2013-06-25T15:07",142],
["CDISCPILOT01","LB","CDISC005",247,"MCH","Ery. Mean Corpuscular Hemoglobin","HEMATOLOGY","30","pg","26","34","1.8618",1.8618,"fmol",1.6,2.1,"NORMAL","",11,"WEEK 20","TREATMENT","2013-06-25T15:07",142],
["CDISCPILOT01","LB","CDISC005",248,"MCHC","Ery. Mean Corpuscular HGB Concentration","HEMATOLOGY","33","g/dL","31","38","20.4798",20.4798,"mmol/L",19,24,"NORMAL","",11,"WEEK 20","TREATMENT","2013-06-25T15:07",142],
["CDISCPILOT01","LB","CDISC005",249,"MCV","Ery. Mean Corpuscular Volume","HEMATOLOGY","92","fL","80","100","92",92,"fL",80,100,"NORMAL","",11,"WEEK 20","TREATMENT","2013-06-25T15:07",142],
["CDISCPILOT01","LB","CDISC005",250,"MONO","Monocytes","HEMATOLOGY","0.35","10^9/L","0.12","0.92","0.35",0.35,"10^9/L",0.12,0.92,"NORMAL","",11,"WEEK 20","TREATMENT","2013-06-25T15:07",142],
["CDISCPILOT01","LB","CDISC005",253,"PLAT","Platelets","HEMATOLOGY","314","10^9/L","130","394","314",314,"10^9/L",130,394,"NORMAL","",11,"WEEK 20","TREATMENT","2013-06-25T15:07",142],
["CDISCPILOT01","LB","CDISC005",255,"RBC","Erythrocytes","HEMATOLOGY","4.30","10^12/L","3.9","5.5","4.3",4.3,"10^12/L",3.9,5.5,"NORMAL","",11,"WEEK 20","TREATMENT","2013-06-25T15:07",142],
["CDISCPILOT01","LB","CDISC005",257,"WBC","Leukocytes","HEMATOLOGY","5.91","10^9/L","3.8","10.7","5.91",5.91,"10^9/L",3.8,10.7,"NORMAL","",11,"WEEK 20","TREATMENT","2013-06-25T15:07",142],
["CDISCPILOT01","LB","CDISC005",262,"BASO","Basophils","HEMATOLOGY","0.04","10^9/L","0","0.2","0.04",0.04,"10^9/L",0,0.2,"NORMAL","",12,"WEEK 24","TREATMENT","2013-07-30T12:32",177],
["CDISCPILOT01","LB","CDISC005",271,"EOS","Eosinophils","HEMATOLOGY","0.09","10^9/L","0","0.57","0.09",0.09,"10^9/L",0,0.57,"NORMAL","",12,"WEEK 24","TREATMENT","2013-07-30T12:32",177],
["CDISCPILOT01","LB","CDISC005",274,"HCT","Hematocrit","HEMATOLOGY","38.0","%","34","48","0.38",0.38,"",0.34,0.48,"NORMAL","",12,"WEEK 24","TREATMENT","2013-07-30T12:32",177],
["CDISCPILOT01","LB","CDISC005",275,"HGB","Hemoglobin","HEMATOLOGY","12.9","g/dL","11.5","15.8","8.00574",8.00574,"mmol/L",7.14,9.81,"NORMAL","",12,"WEEK 24","TREATMENT","2013-07-30T12:32",177],
["CDISCPILOT01","LB","CDISC005",278,"LYM","Lymphocytes","HEMATOLOGY","1.63","10^9/L","0.8","3","1.63",1.63,"10^9/L",0.8,3,"NORMAL","",12,"WEEK 24","TREATMENT","2013-07-30T12:32",177],
["CDISCPILOT01","LB","CDISC005",279,"MCH","Ery. Mean Corpuscular Hemoglobin","HEMATOLOGY","31","pg","26","34","1.92386",1.92386,"fmol",1.6,2.1,"NORMAL","",12,"WEEK 24","TREATMENT","2013-07-30T12:32",177],
["CDISCPILOT01","LB","CDISC005",280,"MCHC","Ery. Mean Corpuscular HGB Concentration","HEMATOLOGY","34","g/dL","31","38","21.1004",21.1004,"mmol/L",19,24,"NORMAL","",12,"WEEK 24","TREATMENT","2013-07-30T12:32",177],
["CDISCPILOT01","LB","CDISC005",281,"MCV","Ery. Mean Corpuscular Volume","HEMATOLOGY","90","fL","80","100","90",90,"fL",80,100,"NORMAL","",12,"WEEK 24","TREATMENT","2013-07-30T12:32",177],
["CDISCPILOT01","LB","CDISC005",282,"MONO","Monocytes","HEMATOLOGY","0.34","10^9/L","0.12","0.92","0.34",0.34,"10^9/L",0.12,0.92,"NORMAL","",12,"WEEK 24","TREATMENT","2013-07-30T12:32",177],
["CDISCPILOT01","LB","CDISC005",286,"PLAT","Platelets","HEMATOLOGY","370","10^9/L","130","394","370",370,"10^9/L",130,394,"NORMAL","",12,"WEEK 24","TREATMENT","2013-07-30T12:32",177],
["CDISCPILOT01","LB","CDISC005",288,"RBC","Erythrocytes","HEMATOLOGY","4.20","10^12/L","3.9","5.5","4.2",4.2,"10^12/L",3.9,5.5,"NORMAL","",12,"WEEK 24","TREATMENT","2013-07-30T12:32",177],
["CDISCPILOT01","LB","CDISC005",292,"WBC","Leukocytes","HEMATOLOGY","5.53","10^9/L","3.8","10.7","5.53",5.53,"10^9/L",3.8,10.7,"NORMAL","",12,"WEEK 24","TREATMENT","2013-07-30T12:32",177],
["CDISCPILOT01","LB","CDISC005",297,"BASO","Basophils","HEMATOLOGY","0.03","10^9/L","0","0.2","0.03",0.03,"10^9/L",0,0.2,"NORMAL","",13,"WEEK 26","TREATMENT","2013-08-06T12:00",184],
["CDISCPILOT01","LB","CDISC005",305,"EOS","Eosinophils","HEMATOLOGY","0.09","10^9/L","0","0.57","0.09",0.09,"10^9/L",0,0.57,"NORMAL","",13,"WEEK 26","TREATMENT","2013-08-06T12:00",184],
["CDISCPILOT01","LB","CDISC005",308,"HCT","Hematocrit","HEMATOLOGY","37.0","%","34","48","0.37",0.37,"",0.34,0.48,"NORMAL","",13,"WEEK 26","TREATMENT","2013-08-06T12:00",184],
["CDISCPILOT01","LB","CDISC005",309,"HGB","Hemoglobin","HEMATOLOGY","12.4","g/dL","11.5","15.8","7.69544",7.69544,"mmol/L",7.14,9.81,"NORMAL","",13,"WEEK 26","TREATMENT","2013-08-06T12:00",184],
["CDISCPILOT01","LB","CDISC005",311,"LYM","Lymphocytes","HEMATOLOGY","1.78","10^9/L","0.8","3","1.78",1.78,"10^9/L",0.8,3,"NORMAL","",13,"WEEK 26","TREATMENT","2013-08-06T12:00",184],
["CDISCPILOT01","LB","CDISC005",312,"MCH","Ery. Mean Corpuscular Hemoglobin","HEMATOLOGY","30","pg","26","34","1.8618",1.8618,"fmol",1.6,2.1,"NORMAL","",13,"WEEK 26","TREATMENT","2013-08-06T12:00",184],
["CDISCPILOT01","LB","CDISC005",313,"MCHC","Ery. Mean Corpuscular HGB Concentration","HEMATOLOGY","33","g/dL","31","38","20.4798",20.4798,"mmol/L",19,24,"NORMAL","",13,"WEEK 26","TREATMENT","2013-08-06T12:00",184],
["CDISCPILOT01","LB","CDISC005",314,"MCV","Ery. Mean Corpuscular Volume","HEMATOLOGY","91","fL","80","100","91",91,"fL",80,100,"NORMAL","",13,"WEEK 26","TREATMENT","2013-08-06T12:00",184],
["CDISCPILOT01","LB","CDISC005",315,"MONO","Monocytes","HEMATOLOGY","0.33","10^9/L","0.12","0.92","0.33",0.33,"10^9/L",0.12,0.92,"NORMAL","",13,"WEEK 26","TREATMENT","2013-08-06T12:00",184],
["CDISCPILOT01","LB","CDISC005",318,"PLAT","Platelets","HEMATOLOGY","315","10^9/L","130","394","315",315,"10^9/L",130,394,"NORMAL","",13,"WEEK 26","TREATMENT","2013-08-06T12:00",184],
["CDISCPILOT01","LB","CDISC005",320,"RBC","Erythrocytes","HEMATOLOGY","4.10","10^12/L","3.9","5.5","4.1",4.1,"10^12/L",3.9,5.5,"NORMAL","",13,"WEEK 26","TREATMENT","2013-08-06T12:00",184],
["CDISCPILOT01","LB","CDISC005",322,"WBC","Leukocytes","HEMATOLOGY","5.57","10^9/L","3.8","10.7","5.57",5.57,"10^9/L",3.8,10.7,"NORMAL","",13,"WEEK 26","TREATMENT","2013-08-06T12:00",184],
["CDISCPILOT01","LB","CDISC006",5,"BASO","Basophils","HEMATOLOGY","0.05","10^9/L","0","0.2","0.05",0.05,"10^9/L",0,0.2,"NORMAL","Y",1,"SCREENING 1","SCREENING","2013-02-21T16:20",-26],
["CDISCPILOT01","LB","CDISC006",14,"EOS","Eosinophils","HEMATOLOGY","0.10","10^9/L","0","0.57","0.1",0.1,"10^9/L",0,0.57,"NORMAL","Y",1,"SCREENING 1","SCREENING","2013-02-21T16:20",-26],
["CDISCPILOT01","LB","CDISC006",17,"HCT","Hematocrit","HEMATOLOGY","40.0","%","34","48","0.4",0.4,"",0.34,0.48,"NORMAL","Y",1,"SCREENING 1","SCREENING","2013-02-21T16:20",-26],
["CDISCPILOT01","LB","CDISC006",18,"HGB","Hemoglobin","HEMATOLOGY","13.1","g/dL","11.5","15.8","8.12986",8.12986,"mmol/L",7.14,9.81,"NORMAL","Y",1,"SCREENING 1","SCREENING","2013-02-21T16:20",-26],
["CDISCPILOT01","LB","CDISC006",21,"LYM","Lymphocytes","HEMATOLOGY","1.21","10^9/L","0.8","3","1.21",1.21,"10^9/L",0.8,3,"NORMAL","Y",1,"SCREENING 1","SCREENING","2013-02-21T16:20",-26],
["CDISCPILOT01","LB","CDISC006",22,"MCH","Ery. Mean Corpuscular Hemoglobin","HEMATOLOGY","32","pg","26","34","1.98592",1.98592,"fmol",1.6,2.1,"NORMAL","Y",1,"SCREENING 1","SCREENING","2013-02-21T16:20",-26],
["CDISCPILOT01","LB","CDISC006",23,"MCHC","Ery. Mean Corpuscular HGB Concentration","HEMATOLOGY","33","g/dL","31","38","20.4798",20.4798,"mmol/L",19,24,"NORMAL","Y",1,"SCREENING 1","SCREENING","2013-02-21T16:20",-26],
["CDISCPILOT01","LB","CDISC006",24,"MCV","Ery. Mean Corpuscular Volume","HEMATOLOGY","96","fL","80","100","96",96,"fL",80,100,"NORMAL","Y",1,"SCREENING 1","SCREENING","2013-02-21T16:20",-26],
["CDISCPILOT01","LB","CDISC006",25,"MONO","Monocytes","HEMATOLOGY","0.53","10^9/L","0.12","0.92","0.53",0.53,"10^9/L",0.12,0.92,"NORMAL","Y",1,"SCREENING 1","SCREENING","2013-02-21T16:20",-26],
["CDISCPILOT01","LB","CDISC006",29,"PLAT","Platelets","HEMATOLOGY","227","10^9/L","130","394","227",227,"10^9/L",130,394,"NORMAL","Y",1,"SCREENING 1","SCREENING","2013-02-21T16:20",-26],
["CDISCPILOT01","LB","CDISC006",31,"RBC","Erythrocytes","HEMATOLOGY","4.20","10^12/L","3.9","5.5","4.2",4.2,"10^12/L",3.9,5.5,"NORMAL","Y",1,"SCREENING 1","SCREENING","2013-02-21T16:20",-26],
["CDISCPILOT01","LB","CDISC006",37,"WBC","Leukocytes","HEMATOLOGY","6.09","10^9/L","3.8","10.7","6.09",6.09,"10^9/L",3.8,10.7,"NORMAL","Y",1,"SCREENING 1","SCREENING","2013-02-21T16:20",-26],
["CDISCPILOT01","LB","CDISC006",42,"BASO","Basophils","HEMATOLOGY","0.05","10^9/L","0","0.2","0.05",0.05,"10^9/L",0,0.2,"NORMAL","",4,"WEEK 2","TREATMENT","2013-04-02T12:41",15],
["CDISCPILOT01","LB","CDISC006",51,"EOS","Eosinophils","HEMATOLOGY","0.05","10^9/L","0","0.57","0.05",0.05,"10^9/L",0,0.57,"NORMAL","",4,"WEEK 2","TREATMENT","2013-04-02T12:41",15],
["CDISCPILOT01","LB","CDISC006",54,"HCT","Hematocrit","HEMATOLOGY","42.0","%","34","48","0.42",0.42,"",0.34,0.48,"NORMAL","",4,"WEEK 2","TREATMENT","2013-04-02T12:41",15],
["CDISCPILOT01","LB","CDISC006",55,"HGB","Hemoglobin","HEMATOLOGY","13.6","g/dL","11.5","15.8","8.44016",8.44016,"mmol/L",7.14,9.81,"NORMAL","",4,"WEEK 2","TREATMENT","2013-04-02T12:41",15],
["CDISCPILOT01","LB","CDISC006",58,"LYM","Lymphocytes","HEMATOLOGY","1.25","10^9/L","0.8","3","1.25",1.25,"10^9/L",0.8,3,"NORMAL","",4,"WEEK 2","TREATMENT","2013-04-02T12:41",15],
["CDISCPILOT01","LB","CDISC006",59,"MCH","Ery. Mean Corpuscular Hemoglobin","HEMATOLOGY","31","pg","26","34","1.92386",1.92386,"fmol",1.6,2.1,"NORMAL","",4,"WEEK 2","TREATMENT","2013-04-02T12:41",15],
["CDISCPILOT01","LB","CDISC006",60,"MCHC","Ery. Mean Corpuscular HGB Concentration","HEMATOLOGY","33","g/dL","31","38","20.4798",20.4798,"mmol/L",19,24,"NORMAL","",4,"WEEK 2","TREATMENT","2013-04-02T12:41",15],
["CDISCPILOT01","LB","CDISC006",61,"MCV","Ery. Mean Corpuscular Volume","HEMATOLOGY","94","fL","80","100","94",94,"fL",80,100,"NORMAL","",4,"WEEK 2","TREATMENT","2013-04-02T12:41",15],
["CDISCPILOT01","LB","CDISC006",62,"MONO","Monocytes","HEMATOLOGY","0.40","10^9/L","0.12","0.92","0.4",0.4,"10^9/L",0.12,0.92,"NORMAL","",4,"WEEK 2","TREATMENT","2013-04-02T12:41",15],
["CDISCPILOT01","LB","CDISC006",66,"PLAT","Platelets","HEMATOLOGY","256","10^9/L","130","394","256",256,"10^9/L",130,394,"NORMAL","",4,"WEEK 2","TREATMENT","2013-04-02T12:41",15],
["CDISCPILOT01","LB","CDISC006",68,"RBC","Erythrocytes","HEMATOLOGY","4.40","10^12/L","3.9","5.5","4.4",4.4,"10^12/L",3.9,5.5,"NORMAL","",4,"WEEK 2","TREATMENT","2013-04-02T12:41",15],
["CDISCPILOT01","LB","CDISC006",72,"WBC","Leukocytes","HEMATOLOGY","5.99","10^9/L","3.8","10.7","5.99",5.99,"10^9/L",3.8,10.7,"NORMAL","",4,"WEEK 2","TREATMENT","2013-04-02T12:41",15],
["CDISCPILOT01","LB","CDISC006",77,"BASO","Basophils","HEMATOLOGY","0.04","10^9/L","0","0.2","0.04",0.04,"10^9/L",0,0.2,"NORMAL","",5,"WEEK 4","TREATMENT","2013-04-16T13:10",29],
["CDISCPILOT01","LB","CDISC006",85,"EOS","Eosinophils","HEMATOLOGY","0.04","10^9/L","0","0.57","0.04",0.04,"10^9/L",0,0.57,"NORMAL","",5,"WEEK 4","TREATMENT","2013-04-16T13:10",29],
["CDISCPILOT01","LB","CDISC006",88,"HCT","Hematocrit","HEMATOLOGY","39.0","%","34","48","0.39",0.39,"",0.34,0.48,"NORMAL","",5,"WEEK 4","TREATMENT","2013-04-16T13:10",29],
["CDISCPILOT01","LB","CDISC006",89,"HGB","Hemoglobin","HEMATOLOGY","12.9","g/dL","11.5","15.8","8.00574",8.00574,"mmol/L",7.14,9.81,"NORMAL","",5,"WEEK 4","TREATMENT","2013-04-16T13:10",29],
["CDISCPILOT01","LB","CDISC006",91,"LYM","Lymphocytes","HEMATOLOGY","1.17","10^9/L","0.8","3","1.17",1.17,"10^9/L",0.8,3,"NORMAL","",5,"WEEK 4","TREATMENT","2013-04-16T13:10",29],
["CDISCPILOT01","LB","CDISC006",92,"MCH","Ery. Mean Corpuscular Hemoglobin","HEMATOLOGY","31","pg","26","34","1.92386",1.92386,"fmol",1.6,2.1,"NORMAL","",5,"WEEK 4","TREATMENT","2013-04-16T13:10",29],
["CDISCPILOT01","LB","CDISC006",93,"MCHC","Ery. Mean Corpuscular HGB Concentration","HEMATOLOGY","33","g/dL","31","38","20.4798",20.4798,"mmol/L",19,24,"NORMAL","",5,"WEEK 4","TREATMENT","2013-04-16T13:10",29],
["CDISCPILOT01","LB","CDISC006",94,"MCV","Ery. Mean Corpuscular Volume","HEMATOLOGY","93","fL","80","100","93",93,"fL",80,100,"NORMAL","",5,"WEEK 4","TREATMENT","2013-04-16T13:10",29],
["CDISCPILOT01","LB","CDISC006",95,"MONO","Monocytes","HEMATOLOGY","0.45","10^9/L","0.12","0.92","0.45",0.45,"10^9/L",0.12,0.92,"NORMAL","",5,"WEEK 4","TREATMENT","2013-04-16T13:10",29],
["CDISCPILOT01","LB","CDISC006",98,"PLAT","Platelets","HEMATOLOGY","250","10^9/L","130","394","250",250,"10^9/L",130,394,"NORMAL","",5,"WEEK 4","TREATMENT","2013-04-16T13:10",29],
["CDISCPILOT01","LB","CDISC006",100,"RBC","Erythrocytes","HEMATOLOGY","4.20","10^12/L","3.9","5.5","4.2",4.2,"10^12/L",3.9,5.5,"NORMAL","",5,"WEEK 4","TREATMENT","2013-04-16T13:10",29],
["CDISCPILOT01","LB","CDISC006",102,"WBC","Leukocytes","HEMATOLOGY","5.63","10^9/L","3.8","10.7","5.63",5.63,"10^9/L",3.8,10.7,"NORMAL","",5,"WEEK 4","TREATMENT","2013-04-16T13:10",29],
["CDISCPILOT01","LB","CDISC006",107,"BASO","Basophils","HEMATOLOGY","0.06","10^9/L","0","0.2","0.06",0.06,"10^9/L",0,0.2,"NORMAL","",7,"WEEK 6","TREATMENT","2013-04-30T12:22",43],
["CDISCPILOT01","LB","CDISC006",116,"EOS","Eosinophils","HEMATOLOGY","0.06","10^9/L","0","0.57","0.06",0.06,"10^9/L",0,0.57,"NORMAL","",7,"WEEK 6","TREATMENT","2013-04-30T12:22",43],
["CDISCPILOT01","LB","CDISC006",119,"HCT","Hematocrit","HEMATOLOGY","40.0","%","34","48","0.4",0.4,"",0.34,0.48,"NORMAL","",7,"WEEK 6","TREATMENT","2013-04-30T12:22",43],
["CDISCPILOT01","LB","CDISC006",120,"HGB","Hemoglobin","HEMATOLOGY","13.2","g/dL","11.5","15.8","8.19192",8.19192,"mmol/L",7.14,9.81,"NORMAL","",7,"WEEK 6","TREATMENT","2013-04-30T12:22",43],
["CDISCPILOT01","LB","CDISC006",123,"LYM","Lymphocytes","HEMATOLOGY","1.45","10^9/L","0.8","3","1.45",1.45,"10^9/L",0.8,3,"NORMAL","",7,"WEEK 6","TREATMENT","2013-04-30T12:22",43],
["CDISCPILOT01","LB","CDISC006",124,"MCH","Ery. Mean Corpuscular Hemoglobin","HEMATOLOGY","32","pg","26","34","1.98592",1.98592,"fmol",1.6,2.1,"NORMAL","",7,"WEEK 6","TREATMENT","2013-04-30T12:22",43],
["CDISCPILOT01","LB","CDISC006",125,"MCHC","Ery. Mean Corpuscular HGB Concentration","HEMATOLOGY","33","g/dL","31","38","20.4798",20.4798,"mmol/L",19,24,"NORMAL","",7,"WEEK 6","TREATMENT","2013-04-30T12:22",43],
["CDISCPILOT01","LB","CDISC006",126,"MCV","Ery. Mean Corpuscular Volume","HEMATOLOGY","97","fL","80","100","97",97,"fL",80,100,"NORMAL","",7,"WEEK 6","TREATMENT","2013-04-30T12:22",43],
["CDISCPILOT01","LB","CDISC006",127,"MONO","Monocytes","HEMATOLOGY","0.40","10^9/L","0.12","0.92","0.4",0.4,"10^9/L",0.12,0.92,"NORMAL","",7,"WEEK 6","TREATMENT","2013-04-30T12:22",43],
["CDISCPILOT01","LB","CDISC006",131,"PLAT","Platelets","HEMATOLOGY","268","10^9/L","130","394","268",268,"10^9/L",130,394,"NORMAL","",7,"WEEK 6","TREATMENT","2013-04-30T12:22",43],
["CDISCPILOT01","LB","CDISC006",133,"RBC","Erythrocytes","HEMATOLOGY","4.10","10^12/L","3.9","5.5","4.1",4.1,"10^12/L",3.9,5.5,"NORMAL","",7,"WEEK 6","TREATMENT","2013-04-30T12:22",43],
["CDISCPILOT01","LB","CDISC006",137,"WBC","Leukocytes","HEMATOLOGY","5.48","10^9/L","3.8","10.7","5.48",5.48,"10^9/L",3.8,10.7,"NORMAL","",7,"WEEK 6","TREATMENT","2013-04-30T12:22",43],
["CDISCPILOT01","LB","CDISC007",5,"BASO","Basophils","HEMATOLOGY","0.04","10^9/L","0","0.2","0.04",0.04,"10^9/L",0,0.2,"NORMAL","Y",1,"SCREENING 1","SCREENING","2012-12-31T11:05",-5],
["CDISCPILOT01","LB","CDISC007",14,"EOS","Eosinophils","HEMATOLOGY","0.08","10^9/L","0","0.57","0.08",0.08,"10^9/L",0,0.57,"NORMAL","Y",1,"SCREENING 1","SCREENING","2012-12-31T11:05",-5],
["CDISCPILOT01","LB","CDISC007",17,"HCT","Hematocrit","HEMATOLOGY","43.0","%","37","51","0.43",0.43,"",0.37,0.51,"NORMAL","Y",1,"SCREENING 1","SCREENING","2012-12-31T11:05",-5],
["CDISCPILOT01","LB","CDISC007",18,"HGB","Hemoglobin","HEMATOLOGY","14.0","g/dL","12.5","17","8.6884",8.6884,"mmol/L",7.76,10.55,"NORMAL","Y",1,"SCREENING 1","SCREENING","2012-12-31T11:05",-5],
["CDISCPILOT01","LB","CDISC007",21,"LYM","Lymphocytes","HEMATOLOGY","1.07","10^9/L","0.8","3","1.07",1.07,"10^9/L",0.8,3,"NORMAL","Y",1,"SCREENING 1","SCREENING","2012-12-31T11:05",-5],
["CDISCPILOT01","LB","CDISC007",22,"MCH","Ery. Mean Corpuscular Hemoglobin","HEMATOLOGY","28","pg","26","34","1.73768",1.73768,"fmol",1.6,2.1,"NORMAL","Y",1,"SCREENING 1","SCREENING","2012-12-31T11:05",-5],
["CDISCPILOT01","LB","CDISC007",23,"MCHC","Ery. Mean Corpuscular HGB Concentration","HEMATOLOGY","33","g/dL","31","38","20.4798",20.4798,"mmol/L",19,24,"NORMAL","Y",1,"SCREENING 1","SCREENING","2012-12-31T11:05",-5],
["CDISCPILOT01","LB","CDISC007",24,"MCV","Ery. Mean Corpuscular Volume","HEMATOLOGY","84","fL","80","100","84",84,"fL",80,100,"NORMAL","Y",1,"SCREENING 1","SCREENING","2012-12-31T11:05",-5],
["CDISCPILOT01","LB","CDISC007",25,"MONO","Monocytes","HEMATOLOGY","0.34","10^9/L","0.12","0.92","0.34",0.34,"10^9/L",0.12,0.92,"NORMAL","Y",1,"SCREENING 1","SCREENING","2012-12-31T11:05",-5],
["CDISCPILOT01","LB","CDISC007",29,"PLAT","Platelets","HEMATOLOGY","179","10^9/L","130","394","179",179,"10^9/L",130,394,"NORMAL","Y",1,"SCREENING 1","SCREENING","2012-12-31T11:05",-5],
["CDISCPILOT01","LB","CDISC007",31,"RBC","Erythrocytes","HEMATOLOGY","5.10","10^12/L","4","5.8","5.1",5.1,"10^12/L",4,5.8,"NORMAL","Y",1,"SCREENING 1","SCREENING","2012-12-31T11:05",-5],
["CDISCPILOT01","LB","CDISC007",37,"WBC","Leukocytes","HEMATOLOGY","5.32","10^9/L","3.8","10.7","5.32",5.32,"10^9/L",3.8,10.7,"NORMAL","Y",1,"SCREENING 1","SCREENING","2012-12-31T11:05",-5],
["CDISCPILOT01","LB","CDISC007",42,"BASO","Basophils","HEMATOLOGY","0.03","10^9/L","0","0.2","0.03",0.03,"10^9/L",0,0.2,"NORMAL","",4,"WEEK 2","TREATMENT","2013-01-18T14:19",14],
["CDISCPILOT01","LB","CDISC007",51,"EOS","Eosinophils","HEMATOLOGY","0.10","10^9/L","0","0.57","0.1",0.1,"10^9/L",0,0.57,"NORMAL","",4,"WEEK 2","TREATMENT","2013-01-18T14:19",14],
["CDISCPILOT01","LB","CDISC007",54,"HCT","Hematocrit","HEMATOLOGY","41.0","%","37","51","0.41",0.41,"",0.37,0.51,"NORMAL","",4,"WEEK 2","TREATMENT","2013-01-18T14:19",14],
["CDISCPILOT01","LB","CDISC007",55,"HGB","Hemoglobin","HEMATOLOGY","13.4","g/dL","12.5","17","8.31604",8.31604,"mmol/L",7.76,10.55,"NORMAL","",4,"WEEK 2","TREATMENT","2013-01-18T14:19",14],
["CDISCPILOT01","LB","CDISC007",58,"LYM","Lymphocytes","HEMATOLOGY","1.47","10^9/L","0.8","3","1.47",1.47,"10^9/L",0.8,3,"NORMAL","",4,"WEEK 2","TREATMENT","2013-01-18T14:19",14],
["CDISCPILOT01","LB","CDISC007",59,"MCH","Ery. Mean Corpuscular Hemoglobin","HEMATOLOGY","28","pg","26","34","1.73768",1.73768,"fmol",1.6,2.1,"NORMAL","",4,"WEEK 2","TREATMENT","2013-01-18T14:19",14],
["CDISCPILOT01","LB","CDISC007",60,"MCHC","Ery. Mean Corpuscular HGB Concentration","HEMATOLOGY","33","g/dL","31","38","20.4798",20.4798,"mmol/L",19,24,"NORMAL","",4,"WEEK 2","TREATMENT","2013-01-18T14:19",14],
["CDISCPILOT01","LB","CDISC007",61,"MCV","Ery. Mean Corpuscular Volume","HEMATOLOGY","84","fL","80","100","84",84,"fL",80,100,"NORMAL","",4,"WEEK 2","TREATMENT","2013-01-18T14:19",14],
["CDISCPILOT01","LB","CDISC007",62,"MONO","Monocytes","HEMATOLOGY","0.24","10^9/L","0.12","0.92","0.24",0.24,"10^9/L",0.12,0.92,"NORMAL","",4,"WEEK 2","TREATMENT","2013-01-18T14:19",14],
["CDISCPILOT01","LB","CDISC007",66,"PLAT","Platelets","HEMATOLOGY","149","10^9/L","130","394","149",149,"10^9/L",130,394,"NORMAL","",4,"WEEK 2","TREATMENT","2013-01-18T14:19",14],
["CDISCPILOT01","LB","CDISC007",68,"RBC","Erythrocytes","HEMATOLOGY","4.80","10^12/L","4","5.8","4.8",4.8,"10^12/L",4,5.8,"NORMAL","",4,"WEEK 2","TREATMENT","2013-01-18T14:19",14],
["CDISCPILOT01","LB","CDISC007",72,"WBC","Leukocytes","HEMATOLOGY","5.55","10^9/L","3.8","10.7","5.55",5.55,"10^9/L",3.8,10.7,"NORMAL","",4,"WEEK 2","TREATMENT","2013-01-18T14:19",14],
["CDISCPILOT01","LB","CDISC007",77,"BASO","Basophils","HEMATOLOGY","0.03","10^9/L","0","0.2","0.03",0.03,"10^9/L",0,0.2,"NORMAL","",5,"WEEK 4","TREATMENT","2013-01-31T12:36",27],
["CDISCPILOT01","LB","CDISC007",85,"EOS","Eosinophils","HEMATOLOGY","0.25","10^9/L","0","0.57","0.25",0.25,"10^9/L",0,0.57,"NORMAL","",5,"WEEK 4","TREATMENT","2013-01-31T12:36",27],
["CDISCPILOT01","LB","CDISC007",88,"HCT","Hematocrit","HEMATOLOGY","43.0","%","37","51","0.43",0.43,"",0.37,0.51,"NORMAL","",5,"WEEK 4","TREATMENT","2013-01-31T12:36",27],
["CDISCPILOT01","LB","CDISC007",89,"HGB","Hemoglobin","HEMATOLOGY","13.8","g/dL","12.5","17","8.56428",8.56428,"mmol/L",7.76,10.55,"NORMAL","",5,"WEEK 4","TREATMENT","2013-01-31T12:36",27],
["CDISCPILOT01","LB","CDISC007",91,"LYM","Lymphocytes","HEMATOLOGY","1.59","10^9/L","0.8","3","1.59",1.59,"10^9/L",0.8,3,"NORMAL","",5,"WEEK 4","TREATMENT","2013-01-31T12:36",27],
["CDISCPILOT01","LB","CDISC007",92,"MCH","Ery. Mean Corpuscular Hemoglobin","HEMATOLOGY","27","pg","26","34","1.67562",1.67562,"fmol",1.6,2.1,"NORMAL","",5,"WEEK 4","TREATMENT","2013-01-31T12:36",27],
["CDISCPILOT01","LB","CDISC007",93,"MCHC","Ery. Mean Corpuscular HGB Concentration","HEMATOLOGY","32","g/dL","31","38","19.8592",19.8592,"mmol/L",19,24,"NORMAL","",5,"WEEK 4","TREATMENT","2013-01-31T12:36",27],
["CDISCPILOT01","LB","CDISC007",94,"MCV","Ery. Mean Corpuscular Volume","HEMATOLOGY","86","fL","80","100","86",86,"fL",80,100,"NORMAL","",5,"WEEK 4","TREATMENT","2013-01-31T12:36",27],
["CDISCPILOT01","LB","CDISC007",95,"MONO","Monocytes","HEMATOLOGY","0.37","10^9/L","0.12","0.92","0.37",0.37,"10^9/L",0.12,0.92,"NORMAL","",5,"WEEK 4","TREATMENT","2013-01-31T12:36",27],
["CDISCPILOT01","LB","CDISC007",98,"PLAT","Platelets","HEMATOLOGY","156","10^9/L","130","394","156",156,"10^9/L",130,394,"NORMAL","",5,"WEEK 4","TREATMENT","2013-01-31T12:36",27],
["CDISCPILOT01","LB","CDISC007",100,"RBC","Erythrocytes","HEMATOLOGY","5.10","10^12/L","4","5.8","5.1",5.1,"10^12/L",4,5.8,"NORMAL","",5,"WEEK 4","TREATMENT","2013-01-31T12:36",27],
["CDISCPILOT01","LB","CDISC007",102,"WBC","Leukocytes","HEMATOLOGY","6.49","10^9/L","3.8","10.7","6.49",6.49,"10^9/L",3.8,10.7,"NORMAL","",5,"WEEK 4","TREATMENT","2013-01-31T12:36",27],
["CDISCPILOT01","LB","CDISC007",107,"BASO","Basophils","HEMATOLOGY","0.03","10^9/L","0","0.2","0.03",0.03,"10^9/L",0,0.2,"NORMAL","",7,"WEEK 6","TREATMENT","2013-02-13T15:53",40],
["CDISCPILOT01","LB","CDISC007",116,"EOS","Eosinophils","HEMATOLOGY","0.56","10^9/L","0","0.57","0.56",0.56,"10^9/L",0,0.57,"NORMAL","",7,"WEEK 6","TREATMENT","2013-02-13T15:53",40],
["CDISCPILOT01","LB","CDISC007",119,"HCT","Hematocrit","HEMATOLOGY","41.0","%","37","51","0.41",0.41,"",0.37,0.51,"NORMAL","",7,"WEEK 6","TREATMENT","2013-02-13T15:53",40],
["CDISCPILOT01","LB","CDISC007",120,"HGB","Hemoglobin","HEMATOLOGY","13.6","g/dL","12.5","17","8.44016",8.44016,"mmol/L",7.76,10.55,"NORMAL","",7,"WEEK 6","TREATMENT","2013-02-13T15:53",40],
["CDISCPILOT01","LB","CDISC007",123,"LYM","Lymphocytes","HEMATOLOGY","1.57","10^9/L","0.8","3","1.57",1.57,"10^9/L",0.8,3,"NORMAL","",7,"WEEK 6","TREATMENT","2013-02-13T15:53",40],
["CDISCPILOT01","LB","CDISC007",124,"MCH","Ery. Mean Corpuscular Hemoglobin","HEMATOLOGY","28","pg","26","34","1.73768",1.73768,"fmol",1.6,2.1,"NORMAL","",7,"WEEK 6","TREATMENT","2013-02-13T15:53",40],
["CDISCPILOT01","LB","CDISC007",125,"MCHC","Ery. Mean Corpuscular HGB Concentration","HEMATOLOGY","33","g/dL","31","38","20.4798",20.4798,"mmol/L",19,24,"NORMAL","",7,"WEEK 6","TREATMENT","2013-02-13T15:53",40],
["CDISCPILOT01","LB","CDISC007",126,"MCV","Ery. Mean Corpuscular Volume","HEMATOLOGY","84","fL","80","100","84",84,"fL",80,100,"NORMAL","",7,"WEEK 6","TREATMENT","2013-02-13T15:53",40],
["CDISCPILOT01","LB","CDISC007",127,"MONO","Monocytes","HEMATOLOGY","0.46","10^9/L","0.12","0.92","0.46",0.46,"10^9/L",0.12,0.92,"NORMAL","",7,"WEEK 6","TREATMENT","2013-02-13T15:53",40],
["CDISCPILOT01","LB","CDISC007",131,"PLAT","Platelets","HEMATOLOGY","170","10^9/L","130","394","170",170,"10^9/L",130,394,"NORMAL","",7,"WEEK 6","TREATMENT","2013-02-13T15:53",40],
["CDISCPILOT01","LB","CDISC007",133,"RBC","Erythrocytes","HEMATOLOGY","4.90","10^12/L","4","5.8","4.9",4.9,"10^12/L",4,5.8,"NORMAL","",7,"WEEK 6","TREATMENT","2013-02-13T15:53",40],
["CDISCPILOT01","LB","CDISC007",137,"WBC","Leukocytes","HEMATOLOGY","7.28","10^9/L","3.8","10.7","7.28",7.28,"10^9/L",3.8,10.7,"NORMAL","",7,"WEEK 6","TREATMENT","2013-02-13T15:53",40],
["CDISCPILOT01","LB","CDISC008",5,"BASO","Basophils","HEMATOLOGY","0.16","10^9/L","0","0.2","0.16",0.16,"10^9/L",0,0.2,"NORMAL","Y",1,"SCREENING 1","SCREENING","2014-05-01T12:17",-10],
["CDISCPILOT01","LB","CDISC008",14,"EOS","Eosinophils","HEMATOLOGY","0.04","10^9/L","0","0.57","0.04",0.04,"10^9/L",0,0.57,"NORMAL","Y",1,"SCREENING 1","SCREENING","2014-05-01T12:17",-10],
["CDISCPILOT01","LB","CDISC008",17,"HCT","Hematocrit","HEMATOLOGY","49.0","%","37","51","0.49",0.49,"",0.37,0.51,"NORMAL","Y",1,"SCREENING 1","SCREENING","2014-05-01T12:17",-10],
["CDISCPILOT01","LB","CDISC008",18,"HGB","Hemoglobin","HEMATOLOGY","14.7","g/dL","12.5","17","9.12282",9.12282,"mmol/L",7.76,10.55,"NORMAL","Y",1,"SCREENING 1","SCREENING","2014-05-01T12:17",-10],
["CDISCPILOT01","LB","CDISC008",21,"LYM","Lymphocytes","HEMATOLOGY","2.11","10^9/L","0.8","3","2.11",2.11,"10^9/L",0.8,3,"NORMAL","Y",1,"SCREENING 1","SCREENING","2014-05-01T12:17",-10],
["CDISCPILOT01","LB","CDISC008",22,"MCH","Ery. Mean Corpuscular Hemoglobin","HEMATOLOGY","28","pg","26","34","1.73768",1.73768,"fmol",1.6,2.1,"NORMAL","Y",1,"SCREENING 1","SCREENING","2014-05-01T12:17",-10],
["CDISCPILOT01","LB","CDISC008",23,"MCHC","Ery. Mean Corpuscular HGB Concentration","HEMATOLOGY","30","g/dL","31","38","18.618",18.618,"mmol/L",19,24,"LOW","Y",1,"SCREENING 1","SCREENING","2014-05-01T12:17",-10],
["CDISCPILOT01","LB","CDISC008",24,"MCV","Ery. Mean Corpuscular Volume","HEMATOLOGY","93","fL","80","100","93",93,"fL",80,100,"NORMAL","Y",1,"SCREENING 1","SCREENING","2014-05-01T12:17",-10],
["CDISCPILOT01","LB","CDISC008",25,"MONO","Monocytes","HEMATOLOGY","0.63","10^9/L","0.12","0.92","0.63",0.63,"10^9/L",0.12,0.92,"NORMAL","Y",1,"SCREENING 1","SCREENING","2014-05-01T12:17",-10],
["CDISCPILOT01","LB","CDISC008",29,"PLAT","Platelets","HEMATOLOGY","572","10^9/L","130","394","572",572,"10^9/L",130,394,"HIGH","Y",1,"SCREENING 1","SCREENING","2014-05-01T12:17",-10],
["CDISCPILOT01","LB","CDISC008",31,"RBC","Erythrocytes","HEMATOLOGY","5.20","10^12/L","4","5.8","5.2",5.2,"10^12/L",4,5.8,"NORMAL","Y",1,"SCREENING 1","SCREENING","2014-05-01T12:17",-10],
["CDISCPILOT01","LB","CDISC008",37,"WBC","Leukocytes","HEMATOLOGY","9.40","10^9/L","3.8","10.7","9.4",9.4,"10^9/L",3.8,10.7,"NORMAL","Y",1,"SCREENING 1","SCREENING","2014-05-01T12:17",-10],
["CDISCPILOT01","LB","CDISC008",38,"BASO","Basophils","HEMATOLOGY","0.00","10^9/L","0","0.2","0",0,"10^9/L",0,0.2,"NORMAL","",1.01,"SCREENING 1: UNSCHEDULED 01","SCREENING","2014-05-03T15:00",-8],
["CDISCPILOT01","LB","CDISC008",39,"EOS","Eosinophils","HEMATOLOGY","0.08","10^9/L","0","0.57","0.08",0.08,"10^9/L",0,0.57,"NORMAL","",1.01,"SCREENING 1: UNSCHEDULED 01","SCREENING","2014-05-03T15:00",-8],
["CDISCPILOT01","LB","CDISC008",40,"HCT","Hematocrit","HEMATOLOGY","44.0","%","37","51","0.44",0.44,"",0.37,0.51,"NORMAL","",1.01,"SCREENING 1: UNSCHEDULED 01","SCREENING","2014-05-03T15:00",-8],
["CDISCPILOT01","LB","CDISC008",41,"HGB","Hemoglobin","HEMATOLOGY","13.7","g/dL","12.5","17","8.50222",8.50222,"mmol/L",7.76,10.55,"NORMAL","",1.01,"SCREENING 1: UNSCHEDULED 01","SCREENING","2014-05-03T15:00",-8],
["CDISCPILOT01","LB","CDISC008",42,"LYM","Lymphocytes","HEMATOLOGY","1.59","10^9/L","0.8","3","1.59",1.59,"10^9/L",0.8,3,"NORMAL","",1.01,"SCREENING 1: UNSCHEDULED 01","SCREENING","2014-05-03T15:00",-8],
["CDISCPILOT01","LB","CDISC008",43,"MCH","Ery. Mean Corpuscular Hemoglobin","HEMATOLOGY","29","pg","26","34","1.79974",1.79974,"fmol",1.6,2.1,"NORMAL","",1.01,"SCREENING 1: UNSCHEDULED 01","SCREENING","2014-05-03T15:00",-8],
["CDISCPILOT01","LB","CDISC008",44,"MCHC","Ery. Mean Corpuscular HGB Concentration","HEMATOLOGY","31","g/dL","31","38","19.2386",19.2386,"mmol/L",19,24,"NORMAL","",1.01,"SCREENING 1: UNSCHEDULED 01","SCREENING","2014-05-03T15:00",-8],
["CDISCPILOT01","LB","CDISC008",45,"MCV","Ery. Mean Corpuscular Volume","HEMATOLOGY","91","fL","80","100","91",91,"fL",80,100,"NORMAL","",1.01,"SCREENING 1: UNSCHEDULED 01","SCREENING","2014-05-03T15:00",-8],
["CDISCPILOT01","LB","CDISC008",46,"MONO","Monocytes","HEMATOLOGY","0.72","10^9/L","0.12","0.92","0.72",0.72,"10^9/L",0.12,0.92,"NORMAL","",1.01,"SCREENING 1: UNSCHEDULED 01","SCREENING","2014-05-03T15:00",-8],
["CDISCPILOT01","LB","CDISC008",47,"PLAT","Platelets","HEMATOLOGY","495","10^9/L","130","394","495",495,"10^9/L",130,394,"HIGH","",1.01,"SCREENING 1: UNSCHEDULED 01","SCREENING","2014-05-03T15:00",-8],
["CDISCPILOT01","LB","CDISC008",48,"RBC","Erythrocytes","HEMATOLOGY","4.80","10^12/L","4","5.8","4.8",4.8,"10^12/L",4,5.8,"NORMAL","",1.01,"SCREENING 1: UNSCHEDULED 01","SCREENING","2014-05-03T15:00",-8],
["CDISCPILOT01","LB","CDISC008",50,"WBC","Leukocytes","HEMATOLOGY","7.95","10^9/L","3.8","10.7","7.95",7.95,"10^9/L",3.8,10.7,"NORMAL","",1.01,"SCREENING 1: UNSCHEDULED 01","SCREENING","2014-05-03T15:00",-8],
["CDISCPILOT01","LB","CDISC008",54,"ANISO","Anisocytes","HEMATOLOGY","1","","","","1",1,"",null,null,"ABNORMAL","",4,"WEEK 2","TREATMENT","2014-05-25T09:16",15],
["CDISCPILOT01","LB","CDISC008",56,"BASO","Basophils","HEMATOLOGY","0.09","10^9/L","0","0.2","0.09",0.09,"10^9/L",0,0.2,"NORMAL","",4,"WEEK 2","TREATMENT","2014-05-25T09:16",15],
["CDISCPILOT01","LB","CDISC008",65,"EOS","Eosinophils","HEMATOLOGY","0.07","10^9/L","0","0.57","0.07",0.07,"10^9/L",0,0.57,"NORMAL","",4,"WEEK 2","TREATMENT","2014-05-25T09:16",15],
["CDISCPILOT01","LB","CDISC008",68,"HCT","Hematocrit","HEMATOLOGY","48.0","%","37","51","0.48",0.48,"",0.37,0.51,"NORMAL","",4,"WEEK 2","TREATMENT","2014-05-25T09:16",15],
["CDISCPILOT01","LB","CDISC008",69,"HGB","Hemoglobin","HEMATOLOGY","15.0","g/dL","12.5","17","9.309",9.309,"mmol/L",7.76,10.55,"NORMAL","",4,"WEEK 2","TREATMENT","2014-05-25T09:16",15],
["CDISCPILOT01","LB","CDISC008",72,"LYM","Lymphocytes","HEMATOLOGY","2.09","10^9/L","0.8","3","2.09",2.09,"10^9/L",0.8,3,"NORMAL","",4,"WEEK 2","TREATMENT","2014-05-25T09:16",15],
["CDISCPILOT01","LB","CDISC008",73,"MCH","Ery. Mean Corpuscular Hemoglobin","HEMATOLOGY","30","pg","26","34","1.8618",1.8618,"fmol",1.6,2.1,"NORMAL","",4,"WEEK 2","TREATMENT","2014-05-25T09:16",15],
["CDISCPILOT01","LB","CDISC008",74,"MCHC","Ery. Mean Corpuscular HGB Concentration","HEMATOLOGY","31","g/dL","31","38","19.2386",19.2386,"mmol/L",19,24,"NORMAL","",4,"WEEK 2","TREATMENT","2014-05-25T09:16",15],
["CDISCPILOT01","LB","CDISC008",75,"MCV","Ery. Mean Corpuscular Volume","HEMATOLOGY","96","fL","80","100","96",96,"fL",80,100,"NORMAL","",4,"WEEK 2","TREATMENT","2014-05-25T09:16",15],
["CDISCPILOT01","LB","CDISC008",76,"MONO","Monocytes","HEMATOLOGY","0.61","10^9/L","0.12","0.92","0.61",0.61,"10^9/L",0.12,0.92,"NORMAL","",4,"WEEK 2","TREATMENT","2014-05-25T09:16",15],
["CDISCPILOT01","LB","CDISC008",80,"PLAT","Platelets","HEMATOLOGY","500","10^9/L","130","394","500",500,"10^9/L",130,394,"HIGH","",4,"WEEK 2","TREATMENT","2014-05-25T09:16",15],
["CDISCPILOT01","LB","CDISC008",81,"POIKILO","Poikilocytes","HEMATOLOGY","1","","","","1",1,"",null,null,"ABNORMAL","",4,"WEEK 2","TREATMENT","2014-05-25T09:16",15],
["CDISCPILOT01","LB","CDISC008",83,"RBC","Erythrocytes","HEMATOLOGY","5.00","10^12/L","4","5.8","5",5,"10^12/L",4,5.8,"NORMAL","",4,"WEEK 2","TREATMENT","2014-05-25T09:16",15],
["CDISCPILOT01","LB","CDISC008",87,"WBC","Leukocytes","HEMATOLOGY","7.09","10^9/L","3.8","10.7","7.09",7.09,"10^9/L",3.8,10.7,"NORMAL","",4,"WEEK 2","TREATMENT","2014-05-25T09:16",15],
["CDISCPILOT01","LB","CDISC008",92,"BASO","Basophils","HEMATOLOGY","0.00","10^9/L","0","0.2","0",0,"10^9/L",0,0.2,"NORMAL","",5,"WEEK 4","TREATMENT","2014-06-11T11:00",32],
["CDISCPILOT01","LB","CDISC008",100,"EOS","Eosinophils","HEMATOLOGY","0.00","10^9/L","0","0.57","0",0,"10^9/L",0,0.57,"NORMAL","",5,"WEEK 4","TREATMENT","2014-06-11T11:00",32],
["CDISCPILOT01","LB","CDISC008",103,"HCT","Hematocrit","HEMATOLOGY","47.0","%","37","51","0.47",0.47,"",0.37,0.51,"NORMAL","",5,"WEEK 4","TREATMENT","2014-06-11T11:00",32],
["CDISCPILOT01","LB","CDISC008",104,"HGB","Hemoglobin","HEMATOLOGY","14.6","g/dL","12.5","17","9.06076",9.06076,"mmol/L",7.76,10.55,"NORMAL","",5,"WEEK 4","TREATMENT","2014-06-11T11:00",32],
["CDISCPILOT01","LB","CDISC008",106,"LYM","Lymphocytes","HEMATOLOGY","2.75","10^9/L","0.8","3","2.75",2.75,"10^9/L",0.8,3,"NORMAL","",5,"WEEK 4","TREATMENT","2014-06-11T11:00",32],
["CDISCPILOT01","LB","CDISC008",107,"MCH","Ery. Mean Corpuscular Hemoglobin","HEMATOLOGY","29","pg","26","34","1.79974",1.79974,"fmol",1.6,2.1,"NORMAL","",5,"WEEK 4","TREATMENT","2014-06-11T11:00",32],
["CDISCPILOT01","LB","CDISC008",108,"MCHC","Ery. Mean Corpuscular HGB Concentration","HEMATOLOGY","31","g/dL","31","38","19.2386",19.2386,"mmol/L",19,24,"NORMAL","",5,"WEEK 4","TREATMENT","2014-06-11T11:00",32],
["CDISCPILOT01","LB","CDISC008",109,"MCV","Ery. Mean Corpuscular Volume","HEMATOLOGY","93","fL","80","100","93",93,"fL",80,100,"NORMAL","",5,"WEEK 4","TREATMENT","2014-06-11T11:00",32],
["CDISCPILOT01","LB","CDISC008",110,"MONO","Monocytes","HEMATOLOGY","0.65","10^9/L","0.12","0.92","0.65",0.65,"10^9/L",0.12,0.92,"NORMAL","",5,"WEEK 4","TREATMENT","2014-06-11T11:00",32],
["CDISCPILOT01","LB","CDISC008",113,"PLAT","Platelets","HEMATOLOGY","416","10^9/L","130","394","416",416,"10^9/L",130,394,"HIGH","",5,"WEEK 4","TREATMENT","2014-06-11T11:00",32],
["CDISCPILOT01","LB","CDISC008",115,"RBC","Erythrocytes","HEMATOLOGY","5.00","10^12/L","4","5.8","5",5,"10^12/L",4,5.8,"NORMAL","",5,"WEEK 4","TREATMENT","2014-06-11T11:00",32],
["CDISCPILOT01","LB","CDISC008",117,"WBC","Leukocytes","HEMATOLOGY","8.09","10^9/L","3.8","10.7","8.09",8.09,"10^9/L",3.8,10.7,"NORMAL","",5,"WEEK 4","TREATMENT","2014-06-11T11:00",32],
["CDISCPILOT01","LB","CDISC008",122,"BASO","Basophils","HEMATOLOGY","0.07","10^9/L","0","0.2","0.07",0.07,"10^9/L",0,0.2,"NORMAL","",7,"WEEK 6","TREATMENT","2014-06-25T14:15",46],
["CDISCPILOT01","LB","CDISC008",130,"EOS","Eosinophils","HEMATOLOGY","0.13","10^9/L","0","0.57","0.13",0.13,"10^9/L",0,0.57,"NORMAL","",7,"WEEK 6","TREATMENT","2014-06-25T14:15",46],
["CDISCPILOT01","LB","CDISC008",133,"HCT","Hematocrit","HEMATOLOGY","46.0","%","37","51","0.46",0.46,"",0.37,0.51,"NORMAL","",7,"WEEK 6","TREATMENT","2014-06-25T14:15",46],
["CDISCPILOT01","LB","CDISC008",134,"HGB","Hemoglobin","HEMATOLOGY","14.8","g/dL","12.5","17","9.18488",9.18488,"mmol/L",7.76,10.55,"NORMAL","",7,"WEEK 6","TREATMENT","2014-06-25T14:15",46],
["CDISCPILOT01","LB","CDISC008",136,"LYM","Lymphocytes","HEMATOLOGY","1.33","10^9/L","0.8","3","1.33",1.33,"10^9/L",0.8,3,"NORMAL","",7,"WEEK 6","TREATMENT","2014-06-25T14:15",46],
["CDISCPILOT01","LB","CDISC008",137,"MCH","Ery. Mean Corpuscular Hemoglobin","HEMATOLOGY","30","pg","26","34","1.8618",1.8618,"fmol",1.6,2.1,"NORMAL","",7,"WEEK 6","TREATMENT","2014-06-25T14:15",46],
["CDISCPILOT01","LB","CDISC008",138,"MCHC","Ery. Mean Corpuscular HGB Concentration","HEMATOLOGY","32","g/dL","31","38","19.8592",19.8592,"mmol/L",19,24,"NORMAL","",7,"WEEK 6","TREATMENT","2014-06-25T14:15",46],
["CDISCPILOT01","LB","CDISC008",139,"MCV","Ery. Mean Corpuscular Volume","HEMATOLOGY","92","fL","80","100","92",92,"fL",80,100,"NORMAL","",7,"WEEK 6","TREATMENT","2014-06-25T14:15",46],
["CDISCPILOT01","LB","CDISC008",140,"MONO","Monocytes","HEMATOLOGY","0.58","10^9/L","0.12","0.92","0.58",0.58,"10^9/L",0.12,0.92,"NORMAL","",7,"WEEK 6","TREATMENT","2014-06-25T14:15",46],
["CDISCPILOT01","LB","CDISC008",143,"PLAT","Platelets","HEMATOLOGY","487","10^9/L","130","394","487",487,"10^9/L",130,394,"HIGH","",7,"WEEK 6","TREATMENT","2014-06-25T14:15",46],
["CDISCPILOT01","LB","CDISC008",145,"RBC","Erythrocytes","HEMATOLOGY","5.00","10^12/L","4","5.8","5",5,"10^12/L",4,5.8,"NORMAL","",7,"WEEK 6","TREATMENT","2014-06-25T14:15",46],
["CDISCPILOT01","LB","CDISC008",147,"WBC","Leukocytes","HEMATOLOGY","7.47","10^9/L","3.8","10.7","7.47",7.47,"10^9/L",3.8,10.7,"NORMAL","",7,"WEEK 6","TREATMENT","2014-06-25T14:15",46],
["CDISCPILOT01","LB","CDISC008",152,"BASO","Basophils","HEMATOLOGY","0.00","10^9/L","0","0.2","0",0,"10^9/L",0,0.2,"NORMAL","",8,"WEEK 8","TREATMENT","2014-07-09T11:15",60],
["CDISCPILOT01","LB","CDISC008",160,"EOS","Eosinophils","HEMATOLOGY","0.29","10^9/L","0","0.57","0.29",0.29,"10^9/L",0,0.57,"NORMAL","",8,"WEEK 8","TREATMENT","2014-07-09T11:15",60],
["CDISCPILOT01","LB","CDISC008",163,"HCT","Hematocrit","HEMATOLOGY","49.0","%","37","51","0.49",0.49,"",0.37,0.51,"NORMAL","",8,"WEEK 8","TREATMENT","2014-07-09T11:15",60],
["CDISCPILOT01","LB","CDISC008",164,"HGB","Hemoglobin","HEMATOLOGY","15.1","g/dL","12.5","17","9.37106",9.37106,"mmol/L",7.76,10.55,"NORMAL","",8,"WEEK 8","TREATMENT","2014-07-09T11:15",60],
["CDISCPILOT01","LB","CDISC008",166,"LYM","Lymphocytes","HEMATOLOGY","0.86","10^9/L","0.8","3","0.86",0.86,"10^9/L",0.8,3,"NORMAL","",8,"WEEK 8","TREATMENT","2014-07-09T11:15",60],
["CDISCPILOT01","LB","CDISC008",167,"MCH","Ery. Mean Corpuscular Hemoglobin","HEMATOLOGY","30","pg","26","34","1.8618",1.8618,"fmol",1.6,2.1,"NORMAL","",8,"WEEK 8","TREATMENT","2014-07-09T11:15",60],
["CDISCPILOT01","LB","CDISC008",168,"MCHC","Ery. Mean Corpuscular HGB Concentration","HEMATOLOGY","31","g/dL","31","38","19.2386",19.2386,"mmol/L",19,24,"NORMAL","",8,"WEEK 8","TREATMENT","2014-07-09T11:15",60],
["CDISCPILOT01","LB","CDISC008",169,"MCV","Ery. Mean Corpuscular Volume","HEMATOLOGY","97","fL","80","100","97",97,"fL",80,100,"NORMAL","",8,"WEEK 8","TREATMENT","2014-07-09T11:15",60],
["CDISCPILOT01","LB","CDISC008",170,"MONO","Monocytes","HEMATOLOGY","0.57","10^9/L","0.12","0.92","0.57",0.57,"10^9/L",0.12,0.92,"NORMAL","",8,"WEEK 8","TREATMENT","2014-07-09T11:15",60],
["CDISCPILOT01","LB","CDISC008",173,"PLAT","Platelets","HEMATOLOGY","490","10^9/L","130","394","490",490,"10^9/L",130,394,"HIGH","",8,"WEEK 8","TREATMENT","2014-07-09T11:15",60],
["CDISCPILOT01","LB","CDISC008",175,"RBC","Erythrocytes","HEMATOLOGY","5.10","10^12/L","4","5.8","5.1",5.1,"10^12/L",4,5.8,"NORMAL","",8,"WEEK 8","TREATMENT","2014-07-09T11:15",60],
["CDISCPILOT01","LB","CDISC008",177,"WBC","Leukocytes","HEMATOLOGY","7.16","10^9/L","3.8","10.7","7.16",7.16,"10^9/L",3.8,10.7,"NORMAL","",8,"WEEK 8","TREATMENT","2014-07-09T11:15",60],
["CDISCPILOT01","LB","CDISC008",182,"BASO","Basophils","HEMATOLOGY","0.00","10^9/L","0","0.2","0",0,"10^9/L",0,0.2,"NORMAL","",9,"WEEK 12","TREATMENT","2014-08-06T15:45",88],
["CDISCPILOT01","LB","CDISC008",191,"EOS","Eosinophils","HEMATOLOGY","0.19","10^9/L","0","0.57","0.19",0.19,"10^9/L",0,0.57,"NORMAL","",9,"WEEK 12","TREATMENT","2014-08-06T15:45",88],
["CDISCPILOT01","LB","CDISC008",194,"HCT","Hematocrit","HEMATOLOGY","44.0","%","37","51","0.44",0.44,"",0.37,0.51,"NORMAL","",9,"WEEK 12","TREATMENT","2014-08-06T15:45",88],
["CDISCPILOT01","LB","CDISC008",195,"HGB","Hemoglobin","HEMATOLOGY","13.9","g/dL","12.5","17","8.62634",8.62634,"mmol/L",7.76,10.55,"NORMAL","",9,"WEEK 12","TREATMENT","2014-08-06T15:45",88],
["CDISCPILOT01","LB","CDISC008",198,"LYM","Lymphocytes","HEMATOLOGY","1.56","10^9/L","0.8","3","1.56",1.56,"10^9/L",0.8,3,"NORMAL","",9,"WEEK 12","TREATMENT","2014-08-06T15:45",88],
["CDISCPILOT01","LB","CDISC008",199,"MCH","Ery. Mean Corpuscular Hemoglobin","HEMATOLOGY","29","pg","26","34","1.79974",1.79974,"fmol",1.6,2.1,"NORMAL","",9,"WEEK 12","TREATMENT","2014-08-06T15:45",88],
["CDISCPILOT01","LB","CDISC008",200,"MCHC","Ery. Mean Corpuscular HGB Concentration","HEMATOLOGY","32","g/dL","31","38","19.8592",19.8592,"mmol/L",19,24,"NORMAL","",9,"WEEK 12","TREATMENT","2014-08-06T15:45",88],
["CDISCPILOT01","LB","CDISC008",201,"MCV","Ery. Mean Corpuscular Volume","HEMATOLOGY","92","fL","80","100","92",92,"fL",80,100,"NORMAL","",9,"WEEK 12","TREATMENT","2014-08-06T15:45",88],
["CDISCPILOT01","LB","CDISC008",202,"MONO","Monocytes","HEMATOLOGY","0.88","10^9/L","0.12","0.92","0.88",0.88,"10^9/L",0.12,0.92,"NORMAL","",9,"WEEK 12","TREATMENT","2014-08-06T15:45",88],
["CDISCPILOT01","LB","CDISC008",206,"PLAT","Platelets","HEMATOLOGY","383","10^9/L","130","394","383",383,"10^9/L",130,394,"NORMAL","",9,"WEEK 12","TREATMENT","2014-08-06T15:45",88],
["CDISCPILOT01","LB","CDISC008",208,"RBC","Erythrocytes","HEMATOLOGY","4.80","10^12/L","4","5.8","4.8",4.8,"10^12/L",4,5.8,"NORMAL","",9,"WEEK 12","TREATMENT","2014-08-06T15:45",88],
["CDISCPILOT01","LB","CDISC008",212,"WBC","Leukocytes","HEMATOLOGY","6.25","10^9/L","3.8","10.7","6.25",6.25,"10^9/L",3.8,10.7,"NORMAL","",9,"WEEK 12","TREATMENT","2014-08-06T15:45",88],
["CDISCPILOT01","LB","CDISC008",217,"BASO","Basophils","HEMATOLOGY","0.00","10^9/L","0","0.2","0",0,"10^9/L",0,0.2,"NORMAL","",10,"WEEK 16","TREATMENT","2014-09-03T10:30",116],
["CDISCPILOT01","LB","CDISC008",225,"EOS","Eosinophils","HEMATOLOGY","0.00","10^9/L","0","0.57","0",0,"10^9/L",0,0.57,"NORMAL","",10,"WEEK 16","TREATMENT","2014-09-03T10:30",116],
["CDISCPILOT01","LB","CDISC008",228,"HCT","Hematocrit","HEMATOLOGY","52.0","%","37","51","0.52",0.52,"",0.37,0.51,"HIGH","",10,"WEEK 16","TREATMENT","2014-09-03T10:30",116],
["CDISCPILOT01","LB","CDISC008",229,"HGB","Hemoglobin","HEMATOLOGY","15.3","g/dL","12.5","17","9.49518",9.49518,"mmol/L",7.76,10.55,"NORMAL","",10,"WEEK 16","TREATMENT","2014-09-03T10:30",116],
["CDISCPILOT01","LB","CDISC008",231,"LYM","Lymphocytes","HEMATOLOGY","0.83","10^9/L","0.8","3","0.83",0.83,"10^9/L",0.8,3,"NORMAL","",10,"WEEK 16","TREATMENT","2014-09-03T10:30",116],
["CDISCPILOT01","LB","CDISC008",232,"MCH","Ery. Mean Corpuscular Hemoglobin","HEMATOLOGY","29","pg","26","34","1.79974",1.79974,"fmol",1.6,2.1,"NORMAL","",10,"WEEK 16","TREATMENT","2014-09-03T10:30",116],
["CDISCPILOT01","LB","CDISC008",233,"MCHC","Ery. Mean Corpuscular HGB Concentration","HEMATOLOGY","29","g/dL","31","38","17.9974",17.9974,"mmol/L",19,24,"LOW","",10,"WEEK 16","TREATMENT","2014-09-03T10:30",116],
["CDISCPILOT01","LB","CDISC008",234,"MCV","Ery. Mean Corpuscular Volume","HEMATOLOGY","100","fL","80","100","100",100,"fL",80,100,"NORMAL","",10,"WEEK 16","TREATMENT","2014-09-03T10:30",116],
["CDISCPILOT01","LB","CDISC008",235,"MONO","Monocytes","HEMATOLOGY","0.32","10^9/L","0.12","0.92","0.32",0.32,"10^9/L",0.12,0.92,"NORMAL","",10,"WEEK 16","TREATMENT","2014-09-03T10:30",116],
["CDISCPILOT01","LB","CDISC008",238,"PLAT","Platelets","HEMATOLOGY","409","10^9/L","130","394","409",409,"10^9/L",130,394,"HIGH","",10,"WEEK 16","TREATMENT","2014-09-03T10:30",116],
["CDISCPILOT01","LB","CDISC008",240,"RBC","Erythrocytes","HEMATOLOGY","5.20","10^12/L","4","5.8","5.2",5.2,"10^12/L",4,5.8,"NORMAL","",10,"WEEK 16","TREATMENT","2014-09-03T10:30",116],
["CDISCPILOT01","LB","CDISC008",242,"WBC","Leukocytes","HEMATOLOGY","6.38","10^9/L","3.8","10.7","6.38",6.38,"10^9/L",3.8,10.7,"NORMAL","",10,"WEEK 16","TREATMENT","2014-09-03T10:30",116],
["CDISCPILOT01","LB","CDISC008",247,"BASO","Basophils","HEMATOLOGY","0.16","10^9/L","0","0.2","0.16",0.16,"10^9/L",0,0.2,"NORMAL","",11,"WEEK 20","TREATMENT","2014-10-01T09:30",144],
["CDISCPILOT01","LB","CDISC008",255,"EOS","Eosinophils","HEMATOLOGY","0.07","10^9/L","0","0.57","0.07",0.07,"10^9/L",0,0.57,"NORMAL","",11,"WEEK 20","TREATMENT","2014-10-01T09:30",144],
["CDISCPILOT01","LB","CDISC008",258,"HCT","Hematocrit","HEMATOLOGY","49.0","%","37","51","0.49",0.49,"",0.37,0.51,"NORMAL","",11,"WEEK 20","TREATMENT","2014-10-01T09:30",144],
["CDISCPILOT01","LB","CDISC008",259,"HGB","Hemoglobin","HEMATOLOGY","14.9","g/dL","12.5","17","9.24694",9.24694,"mmol/L",7.76,10.55,"NORMAL","",11,"WEEK 20","TREATMENT","2014-10-01T09:30",144],
["CDISCPILOT01","LB","CDISC008",261,"LYM","Lymphocytes","HEMATOLOGY","2.06","10^9/L","0.8","3","2.06",2.06,"10^9/L",0.8,3,"NORMAL","",11,"WEEK 20","TREATMENT","2014-10-01T09:30",144],
["CDISCPILOT01","LB","CDISC008",262,"MCH","Ery. Mean Corpuscular Hemoglobin","HEMATOLOGY","30","pg","26","34","1.8618",1.8618,"fmol",1.6,2.1,"NORMAL","",11,"WEEK 20","TREATMENT","2014-10-01T09:30",144],
["CDISCPILOT01","LB","CDISC008",263,"MCHC","Ery. Mean Corpuscular HGB Concentration","HEMATOLOGY","31","g/dL","31","38","19.2386",19.2386,"mmol/L",19,24,"NORMAL","",11,"WEEK 20","TREATMENT","2014-10-01T09:30",144],
["CDISCPILOT01","LB","CDISC008",264,"MCV","Ery. Mean Corpuscular Volume","HEMATOLOGY","99","fL","80","100","99",99,"fL",80,100,"NORMAL","",11,"WEEK 20","TREATMENT","2014-10-01T09:30",144],
["CDISCPILOT01","LB","CDISC008",265,"MONO","Monocytes","HEMATOLOGY","1.15","10^9/L","0.12","0.92","1.15",1.15,"10^9/L",0.12,0.92,"HIGH","",11,"WEEK 20","TREATMENT","2014-10-01T09:30",144],
["CDISCPILOT01","LB","CDISC008",268,"PLAT","Platelets","HEMATOLOGY","515","10^9/L","130","394","515",515,"10^9/L",130,394,"HIGH","",11,"WEEK 20","TREATMENT","2014-10-01T09:30",144],
["CDISCPILOT01","LB","CDISC008",270,"RBC","Erythrocytes","HEMATOLOGY","4.90","10^12/L","4","5.8","4.9",4.9,"10^12/L",4,5.8,"NORMAL","",11,"WEEK 20","TREATMENT","2014-10-01T09:30",144],
["CDISCPILOT01","LB","CDISC008",274,"WBC","Leukocytes","HEMATOLOGY","12.41","10^9/L","3.8","10.7","12.41",12.41,"10^9/L",3.8,10.7,"HIGH","",11,"WEEK 20","TREATMENT","2014-10-01T09:30",144],
["CDISCPILOT01","LB","CDISC009",5,"BASO","Basophils","HEMATOLOGY","0.04","10^9/L","0","0.2","0.04",0.04,"10^9/L",0,0.2,"NORMAL","Y",1,"SCREENING 1","SCREENING","2012-10-06T13:25",-16],
["CDISCPILOT01","LB","CDISC009",14,"EOS","Eosinophils","HEMATOLOGY","0.12","10^9/L","0","0.57","0.12",0.12,"10^9/L",0,0.57,"NORMAL","Y",1,"SCREENING 1","SCREENING","2012-10-06T13:25",-16],
["CDISCPILOT01","LB","CDISC009",17,"HCT","Hematocrit","HEMATOLOGY","41.0","%","34","48","0.41",0.41,"",0.34,0.48,"NORMAL","Y",1,"SCREENING 1","SCREENING","2012-10-06T13:25",-16],
["CDISCPILOT01","LB","CDISC009",18,"HGB","Hemoglobin","HEMATOLOGY","13.6","g/dL","11.5","15.8","8.44016",8.44016,"mmol/L",7.14,9.81,"NORMAL","Y",1,"SCREENING 1","SCREENING","2012-10-06T13:25",-16],
["CDISCPILOT01","LB","CDISC009",21,"LYM","Lymphocytes","HEMATOLOGY","1.73","10^9/L","0.8","3","1.73",1.73,"10^9/L",0.8,3,"NORMAL","Y",1,"SCREENING 1","SCREENING","2012-10-06T13:25",-16],
["CDISCPILOT01","LB","CDISC009",22,"MCH","Ery. Mean Corpuscular Hemoglobin","HEMATOLOGY","30","pg","26","34","1.8618",1.8618,"fmol",1.6,2.1,"NORMAL","Y",1,"SCREENING 1","SCREENING","2012-10-06T13:25",-16],
["CDISCPILOT01","LB","CDISC009",23,"MCHC","Ery. Mean Corpuscular HGB Concentration","HEMATOLOGY","33","g/dL","31","38","20.4798",20.4798,"mmol/L",19,24,"NORMAL","Y",1,"SCREENING 1","SCREENING","2012-10-06T13:25",-16],
["CDISCPILOT01","LB","CDISC009",24,"MCV","Ery. Mean Corpuscular Volume","HEMATOLOGY","89","fL","80","100","89",89,"fL",80,100,"NORMAL","Y",1,"SCREENING 1","SCREENING","2012-10-06T13:25",-16],
["CDISCPILOT01","LB","CDISC009",25,"MONO","Monocytes","HEMATOLOGY","0.27","10^9/L","0.12","0.92","0.27",0.27,"10^9/L",0.12,0.92,"NORMAL","Y",1,"SCREENING 1","SCREENING","2012-10-06T13:25",-16],
["CDISCPILOT01","LB","CDISC009",29,"PLAT","Platelets","HEMATOLOGY","177","10^9/L","130","394","177",177,"10^9/L",130,394,"NORMAL","Y",1,"SCREENING 1","SCREENING","2012-10-06T13:25",-16],
["CDISCPILOT01","LB","CDISC009",31,"RBC","Erythrocytes","HEMATOLOGY","4.60","10^12/L","3.9","5.5","4.6",4.6,"10^12/L",3.9,5.5,"NORMAL","Y",1,"SCREENING 1","SCREENING","2012-10-06T13:25",-16],
["CDISCPILOT01","LB","CDISC009",37,"WBC","Leukocytes","HEMATOLOGY","5.98","10^9/L","3.8","10.7","5.98",5.98,"10^9/L",3.8,10.7,"NORMAL","Y",1,"SCREENING 1","SCREENING","2012-10-06T13:25",-16],
["CDISCPILOT01","LB","CDISC009",42,"BASO","Basophils","HEMATOLOGY","0.04","10^9/L","0","0.2","0.04",0.04,"10^9/L",0,0.2,"NORMAL","",4,"WEEK 2","TREATMENT","2012-11-05T11:15",15],
["CDISCPILOT01","LB","CDISC009",51,"EOS","Eosinophils","HEMATOLOGY","0.12","10^9/L","0","0.57","0.12",0.12,"10^9/L",0,0.57,"NORMAL","",4,"WEEK 2","TREATMENT","2012-11-05T11:15",15],
["CDISCPILOT01","LB","CDISC009",54,"HCT","Hematocrit","HEMATOLOGY","40.0","%","34","48","0.4",0.4,"",0.34,0.48,"NORMAL","",4,"WEEK 2","TREATMENT","2012-11-05T11:15",15],
["CDISCPILOT01","LB","CDISC009",55,"HGB","Hemoglobin","HEMATOLOGY","13.5","g/dL","11.5","15.8","8.3781",8.3781,"mmol/L",7.14,9.81,"NORMAL","",4,"WEEK 2","TREATMENT","2012-11-05T11:15",15],
["CDISCPILOT01","LB","CDISC009",58,"LYM","Lymphocytes","HEMATOLOGY","1.55","10^9/L","0.8","3","1.55",1.55,"10^9/L",0.8,3,"NORMAL","",4,"WEEK 2","TREATMENT","2012-11-05T11:15",15],
["CDISCPILOT01","LB","CDISC009",59,"MCH","Ery. Mean Corpuscular Hemoglobin","HEMATOLOGY","31","pg","26","34","1.92386",1.92386,"fmol",1.6,2.1,"NORMAL","",4,"WEEK 2","TREATMENT","2012-11-05T11:15",15],
["CDISCPILOT01","LB","CDISC009",60,"MCHC","Ery. Mean Corpuscular HGB Concentration","HEMATOLOGY","34","g/dL","31","38","21.1004",21.1004,"mmol/L",19,24,"NORMAL","",4,"WEEK 2","TREATMENT","2012-11-05T11:15",15],
["CDISCPILOT01","LB","CDISC009",61,"MCV","Ery. Mean Corpuscular Volume","HEMATOLOGY","93","fL","80","100","93",93,"fL",80,100,"NORMAL","",4,"WEEK 2","TREATMENT","2012-11-05T11:15",15],
["CDISCPILOT01","LB","CDISC009",62,"MONO","Monocytes","HEMATOLOGY","0.39","10^9/L","0.12","0.92","0.39",0.39,"10^9/L",0.12,0.92,"NORMAL","",4,"WEEK 2","TREATMENT","2012-11-05T11:15",15],
["CDISCPILOT01","LB","CDISC009",66,"PLAT","Platelets","HEMATOLOGY","158","10^9/L","130","394","158",158,"10^9/L",130,394,"NORMAL","",4,"WEEK 2","TREATMENT","2012-11-05T11:15",15],
["CDISCPILOT01","LB","CDISC009",68,"RBC","Erythrocytes","HEMATOLOGY","4.30","10^12/L","3.9","5.5","4.3",4.3,"10^12/L",3.9,5.5,"NORMAL","",4,"WEEK 2","TREATMENT","2012-11-05T11:15",15],
["CDISCPILOT01","LB","CDISC009",72,"WBC","Leukocytes","HEMATOLOGY","6.36","10^9/L","3.8","10.7","6.36",6.36,"10^9/L",3.8,10.7,"NORMAL","",4,"WEEK 2","TREATMENT","2012-11-05T11:15",15],
["CDISCPILOT01","LB","CDISC009",77,"BASO","Basophils","HEMATOLOGY","0.00","10^9/L","0","0.2","0",0,"10^9/L",0,0.2,"NORMAL","",5,"WEEK 4","TREATMENT","2012-11-20T13:00",30],
["CDISCPILOT01","LB","CDISC009",85,"EOS","Eosinophils","HEMATOLOGY","0.05","10^9/L","0","0.57","0.05",0.05,"10^9/L",0,0.57,"NORMAL","",5,"WEEK 4","TREATMENT","2012-11-20T13:00",30],
["CDISCPILOT01","LB","CDISC009",88,"HCT","Hematocrit","HEMATOLOGY","44.0","%","34","48","0.44",0.44,"",0.34,0.48,"NORMAL","",5,"WEEK 4","TREATMENT","2012-11-20T13:00",30],
["CDISCPILOT01","LB","CDISC009",89,"HGB","Hemoglobin","HEMATOLOGY","14.1","g/dL","11.5","15.8","8.75046",8.75046,"mmol/L",7.14,9.81,"NORMAL","",5,"WEEK 4","TREATMENT","2012-11-20T13:00",30],
["CDISCPILOT01","LB","CDISC009",91,"LYM","Lymphocytes","HEMATOLOGY","1.55","10^9/L","0.8","3","1.55",1.55,"10^9/L",0.8,3,"NORMAL","",5,"WEEK 4","TREATMENT","2012-11-20T13:00",30],
["CDISCPILOT01","LB","CDISC009",92,"MCH","Ery. Mean Corpuscular Hemoglobin","HEMATOLOGY","30","pg","26","34","1.8618",1.8618,"fmol",1.6,2.1,"NORMAL","",5,"WEEK 4","TREATMENT","2012-11-20T13:00",30],
["CDISCPILOT01","LB","CDISC009",93,"MCHC","Ery. Mean Corpuscular HGB Concentration","HEMATOLOGY","32","g/dL","31","38","19.8592",19.8592,"mmol/L",19,24,"NORMAL","",5,"WEEK 4","TREATMENT","2012-11-20T13:00",30],
["CDISCPILOT01","LB","CDISC009",94,"MCV","Ery. Mean Corpuscular Volume","HEMATOLOGY","94","fL","80","100","94",94,"fL",80,100,"NORMAL","",5,"WEEK 4","TREATMENT","2012-11-20T13:00",30],
["CDISCPILOT01","LB","CDISC009",95,"MONO","Monocytes","HEMATOLOGY","0.40","10^9/L","0.12","0.92","0.4",0.4,"10^9/L",0.12,0.92,"NORMAL","",5,"WEEK 4","TREATMENT","2012-11-20T13:00",30],
["CDISCPILOT01","LB","CDISC009",98,"PLAT","Platelets","HEMATOLOGY","208","10^9/L","130","394","208",208,"10^9/L",130,394,"NORMAL","",5,"WEEK 4","TREATMENT","2012-11-20T13:00",30],
["CDISCPILOT01","LB","CDISC009",100,"RBC","Erythrocytes","HEMATOLOGY","4.70","10^12/L","3.9","5.5","4.7",4.7,"10^12/L",3.9,5.5,"NORMAL","",5,"WEEK 4","TREATMENT","2012-11-20T13:00",30],
["CDISCPILOT01","LB","CDISC009",102,"WBC","Leukocytes","HEMATOLOGY","4.99","10^9/L","3.8","10.7","4.99",4.99,"10^9/L",3.8,10.7,"NORMAL","",5,"WEEK 4","TREATMENT","2012-11-20T13:00",30],
["CDISCPILOT01","LB","CDISC009",107,"BASO","Basophils","HEMATOLOGY","0.04","10^9/L","0","0.2","0.04",0.04,"10^9/L",0,0.2,"NORMAL","",7,"WEEK 6","TREATMENT","2012-12-08T11:00",48],
["CDISCPILOT01","LB","CDISC009",115,"EOS","Eosinophils","HEMATOLOGY","0.09","10^9/L","0","0.57","0.09",0.09,"10^9/L",0,0.57,"NORMAL","",7,"WEEK 6","TREATMENT","2012-12-08T11:00",48],
["CDISCPILOT01","LB","CDISC009",118,"HCT","Hematocrit","HEMATOLOGY","41.0","%","34","48","0.41",0.41,"",0.34,0.48,"NORMAL","",7,"WEEK 6","TREATMENT","2012-12-08T11:00",48],
["CDISCPILOT01","LB","CDISC009",119,"HGB","Hemoglobin","HEMATOLOGY","13.9","g/dL","11.5","15.8","8.62634",8.62634,"mmol/L",7.14,9.81,"NORMAL","",7,"WEEK 6","TREATMENT","2012-12-08T11:00",48],
["CDISCPILOT01","LB","CDISC009",121,"LYM","Lymphocytes","HEMATOLOGY","1.68","10^9/L","0.8","3","1.68",1.68,"10^9/L",0.8,3,"NORMAL","",7,"WEEK 6","TREATMENT","2012-12-08T11:00",48],
["CDISCPILOT01","LB","CDISC009",122,"MCH","Ery. Mean Corpuscular Hemoglobin","HEMATOLOGY","31","pg","26","34","1.92386",1.92386,"fmol",1.6,2.1,"NORMAL","",7,"WEEK 6","TREATMENT","2012-12-08T11:00",48],
["CDISCPILOT01","LB","CDISC009",123,"MCHC","Ery. Mean Corpuscular HGB Concentration","HEMATOLOGY","34","g/dL","31","38","21.1004",21.1004,"mmol/L",19,24,"NORMAL","",7,"WEEK 6","TREATMENT","2012-12-08T11:00",48],
["CDISCPILOT01","LB","CDISC009",124,"MCV","Ery. Mean Corpuscular Volume","HEMATOLOGY","90","fL","80","100","90",90,"fL",80,100,"NORMAL","",7,"WEEK 6","TREATMENT","2012-12-08T11:00",48],
["CDISCPILOT01","LB","CDISC009",125,"MONO","Monocytes","HEMATOLOGY","0.32","10^9/L","0.12","0.92","0.32",0.32,"10^9/L",0.12,0.92,"NORMAL","",7,"WEEK 6","TREATMENT","2012-12-08T11:00",48],
["CDISCPILOT01","LB","CDISC009",128,"PLAT","Platelets","HEMATOLOGY","176","10^9/L","130","394","176",176,"10^9/L",130,394,"NORMAL","",7,"WEEK 6","TREATMENT","2012-12-08T11:00",48],
["CDISCPILOT01","LB","CDISC009",130,"RBC","Erythrocytes","HEMATOLOGY","4.60","10^12/L","3.9","5.5","4.6",4.6,"10^12/L",3.9,5.5,"NORMAL","",7,"WEEK 6","TREATMENT","2012-12-08T11:00",48],
["CDISCPILOT01","LB","CDISC009",132,"WBC","Leukocytes","HEMATOLOGY","4.75","10^9/L","3.8","10.7","4.75",4.75,"10^9/L",3.8,10.7,"NORMAL","",7,"WEEK 6","TREATMENT","2012-12-08T11:00",48],
["CDISCPILOT01","LB","CDISC009",137,"BASO","Basophils","HEMATOLOGY","0.04","10^9/L","0","0.2","0.04",0.04,"10^9/L",0,0.2,"NORMAL","",8,"WEEK 8","TREATMENT","2012-12-22T10:40",62],
["CDISCPILOT01","LB","CDISC009",145,"EOS","Eosinophils","HEMATOLOGY","0.09","10^9/L","0","0.57","0.09",0.09,"10^9/L",0,0.57,"NORMAL","",8,"WEEK 8","TREATMENT","2012-12-22T10:40",62],
["CDISCPILOT01","LB","CDISC009",148,"HCT","Hematocrit","HEMATOLOGY","40.0","%","34","48","0.4",0.4,"",0.34,0.48,"NORMAL","",8,"WEEK 8","TREATMENT","2012-12-22T10:40",62],
["CDISCPILOT01","LB","CDISC009",149,"HGB","Hemoglobin","HEMATOLOGY","13.5","g/dL","11.5","15.8","8.3781",8.3781,"mmol/L",7.14,9.81,"NORMAL","",8,"WEEK 8","TREATMENT","2012-12-22T10:40",62],
["CDISCPILOT01","LB","CDISC009",151,"LYM","Lymphocytes","HEMATOLOGY","1.65","10^9/L","0.8","3","1.65",1.65,"10^9/L",0.8,3,"NORMAL","",8,"WEEK 8","TREATMENT","2012-12-22T10:40",62],
["CDISCPILOT01","LB","CDISC009",152,"MCH","Ery. Mean Corpuscular Hemoglobin","HEMATOLOGY","31","pg","26","34","1.92386",1.92386,"fmol",1.6,2.1,"NORMAL","",8,"WEEK 8","TREATMENT","2012-12-22T10:40",62],
["CDISCPILOT01","LB","CDISC009",153,"MCHC","Ery. Mean Corpuscular HGB Concentration","HEMATOLOGY","34","g/dL","31","38","21.1004",21.1004,"mmol/L",19,24,"NORMAL","",8,"WEEK 8","TREATMENT","2012-12-22T10:40",62],
["CDISCPILOT01","LB","CDISC009",154,"MCV","Ery. Mean Corpuscular Volume","HEMATOLOGY","91","fL","80","100","91",91,"fL",80,100,"NORMAL","",8,"WEEK 8","TREATMENT","2012-12-22T10:40",62],
["CDISCPILOT01","LB","CDISC009",155,"MONO","Monocytes","HEMATOLOGY","0.35","10^9/L","0.12","0.92","0.35",0.35,"10^9/L",0.12,0.92,"NORMAL","",8,"WEEK 8","TREATMENT","2012-12-22T10:40",62],
["CDISCPILOT01","LB","CDISC009",158,"PLAT","Platelets","HEMATOLOGY","200","10^9/L","130","394","200",200,"10^9/L",130,394,"NORMAL","",8,"WEEK 8","TREATMENT","2012-12-22T10:40",62],
["CDISCPILOT01","LB","CDISC009",160,"RBC","Erythrocytes","HEMATOLOGY","4.40","10^12/L","3.9","5.5","4.4",4.4,"10^12/L",3.9,5.5,"NORMAL","",8,"WEEK 8","TREATMENT","2012-12-22T10:40",62],
["CDISCPILOT01","LB","CDISC009",162,"WBC","Leukocytes","HEMATOLOGY","5.50","10^9/L","3.8","10.7","5.5",5.5,"10^9/L",3.8,10.7,"NORMAL","",8,"WEEK 8","TREATMENT","2012-12-22T10:40",62],
["CDISCPILOT01","LB","CDISC009",167,"BASO","Basophils","HEMATOLOGY","0.06","10^9/L","0","0.2","0.06",0.06,"10^9/L",0,0.2,"NORMAL","",9,"WEEK 12","TREATMENT","2013-01-19T15:15",90],
["CDISCPILOT01","LB","CDISC009",176,"EOS","Eosinophils","HEMATOLOGY","0.09","10^9/L","0","0.57","0.09",0.09,"10^9/L",0,0.57,"NORMAL","",9,"WEEK 12","TREATMENT","2013-01-19T15:15",90],
["CDISCPILOT01","LB","CDISC009",179,"HCT","Hematocrit","HEMATOLOGY","44.0","%","34","48","0.44",0.44,"",0.34,0.48,"NORMAL","",9,"WEEK 12","TREATMENT","2013-01-19T15:15",90],
["CDISCPILOT01","LB","CDISC009",180,"HGB","Hemoglobin","HEMATOLOGY","13.8","g/dL","11.5","15.8","8.56428",8.56428,"mmol/L",7.14,9.81,"NORMAL","",9,"WEEK 12","TREATMENT","2013-01-19T15:15",90],
["CDISCPILOT01","LB","CDISC009",183,"LYM","Lymphocytes","HEMATOLOGY","1.79","10^9/L","0.8","3","1.79",1.79,"10^9/L",0.8,3,"NORMAL","",9,"WEEK 12","TREATMENT","2013-01-19T15:15",90],
["CDISCPILOT01","LB","CDISC009",184,"MCH","Ery. Mean Corpuscular Hemoglobin","HEMATOLOGY","31","pg","26","34","1.92386",1.92386,"fmol",1.6,2.1,"NORMAL","",9,"WEEK 12","TREATMENT","2013-01-19T15:15",90],
["CDISCPILOT01","LB","CDISC009",185,"MCHC","Ery. Mean Corpuscular HGB Concentration","HEMATOLOGY","31","g/dL","31","38","19.2386",19.2386,"mmol/L",19,24,"NORMAL","",9,"WEEK 12","TREATMENT","2013-01-19T15:15",90],
["CDISCPILOT01","LB","CDISC009",186,"MCV","Ery. Mean Corpuscular Volume","HEMATOLOGY","98","fL","80","100","98",98,"fL",80,100,"NORMAL","",9,"WEEK 12","TREATMENT","2013-01-19T15:15",90],
["CDISCPILOT01","LB","CDISC009",187,"MONO","Monocytes","HEMATOLOGY","0.39","10^9/L","0.12","0.92","0.39",0.39,"10^9/L",0.12,0.92,"NORMAL","",9,"WEEK 12","TREATMENT","2013-01-19T15:15",90],
["CDISCPILOT01","LB","CDISC009",191,"PLAT","Platelets","HEMATOLOGY","190","10^9/L","130","394","190",190,"10^9/L",130,394,"NORMAL","",9,"WEEK 12","TREATMENT","2013-01-19T15:15",90],
["CDISCPILOT01","LB","CDISC009",193,"RBC","Erythrocytes","HEMATOLOGY","4.50","10^12/L","3.9","5.5","4.5",4.5,"10^12/L",3.9,5.5,"NORMAL","",9,"WEEK 12","TREATMENT","2013-01-19T15:15",90],
["CDISCPILOT01","LB","CDISC009",197,"WBC","Leukocytes","HEMATOLOGY","6.93","10^9/L","3.8","10.7","6.93",6.93,"10^9/L",3.8,10.7,"NORMAL","",9,"WEEK 12","TREATMENT","2013-01-19T15:15",90],
["CDISCPILOT01","LB","CDISC009",201,"ANISO","Anisocytes","HEMATOLOGY","1","","","","1",1,"",null,null,"ABNORMAL","",10,"WEEK 16","TREATMENT","2013-02-16T13:15",118],
["CDISCPILOT01","LB","CDISC009",203,"BASO","Basophils","HEMATOLOGY","0.05","10^9/L","0","0.2","0.05",0.05,"10^9/L",0,0.2,"NORMAL","",10,"WEEK 16","TREATMENT","2013-02-16T13:15",118],
["CDISCPILOT01","LB","CDISC009",211,"EOS","Eosinophils","HEMATOLOGY","0.06","10^9/L","0","0.57","0.06",0.06,"10^9/L",0,0.57,"NORMAL","",10,"WEEK 16","TREATMENT","2013-02-16T13:15",118],
["CDISCPILOT01","LB","CDISC009",214,"HCT","Hematocrit","HEMATOLOGY","45.0","%","34","48","0.45",0.45,"",0.34,0.48,"NORMAL","",10,"WEEK 16","TREATMENT","2013-02-16T13:15",118],
["CDISCPILOT01","LB","CDISC009",215,"HGB","Hemoglobin","HEMATOLOGY","14.3","g/dL","11.5","15.8","8.87458",8.87458,"mmol/L",7.14,9.81,"NORMAL","",10,"WEEK 16","TREATMENT","2013-02-16T13:15",118],
["CDISCPILOT01","LB","CDISC009",217,"LYM","Lymphocytes","HEMATOLOGY","2.15","10^9/L","0.8","3","2.15",2.15,"10^9/L",0.8,3,"NORMAL","",10,"WEEK 16","TREATMENT","2013-02-16T13:15",118],
["CDISCPILOT01","LB","CDISC009",218,"MCH","Ery. Mean Corpuscular Hemoglobin","HEMATOLOGY","32","pg","26","34","1.98592",1.98592,"fmol",1.6,2.1,"NORMAL","",10,"WEEK 16","TREATMENT","2013-02-16T13:15",118],
["CDISCPILOT01","LB","CDISC009",219,"MCHC","Ery. Mean Corpuscular HGB Concentration","HEMATOLOGY","32","g/dL","31","38","19.8592",19.8592,"mmol/L",19,24,"NORMAL","",10,"WEEK 16","TREATMENT","2013-02-16T13:15",118],
["CDISCPILOT01","LB","CDISC009",220,"MCV","Ery. Mean Corpuscular Volume","HEMATOLOGY","99","fL","80","100","99",99,"fL",80,100,"NORMAL","",10,"WEEK 16","TREATMENT","2013-02-16T13:15",118],
["CDISCPILOT01","LB","CDISC009",221,"MONO","Monocytes","HEMATOLOGY","0.30","10^9/L","0.12","0.92","0.3",0.3,"10^9/L",0.12,0.92,"NORMAL","",10,"WEEK 16","TREATMENT","2013-02-16T13:15",118],
["CDISCPILOT01","LB","CDISC009",224,"PLAT","Platelets","HEMATOLOGY","156","10^9/L","130","394","156",156,"10^9/L",130,394,"NORMAL","",10,"WEEK 16","TREATMENT","2013-02-16T13:15",118],
["CDISCPILOT01","LB","CDISC009",226,"RBC","Erythrocytes","HEMATOLOGY","4.50","10^12/L","3.9","5.5","4.5",4.5,"10^12/L",3.9,5.5,"NORMAL","",10,"WEEK 16","TREATMENT","2013-02-16T13:15",118],
["CDISCPILOT01","LB","CDISC009",228,"WBC","Leukocytes","HEMATOLOGY","5.71","10^9/L","3.8","10.7","5.71",5.71,"10^9/L",3.8,10.7,"NORMAL","",10,"WEEK 16","TREATMENT","2013-02-16T13:15",118],
["CDISCPILOT01","LB","CDISC009",233,"BASO","Basophils","HEMATOLOGY","0.06","10^9/L","0","0.2","0.06",0.06,"10^9/L",0,0.2,"NORMAL","",11,"WEEK 20","TREATMENT","2013-03-16T08:50",146],
["CDISCPILOT01","LB","CDISC009",241,"EOS","Eosinophils","HEMATOLOGY","0.08","10^9/L","0","0.57","0.08",0.08,"10^9/L",0,0.57,"NORMAL","",11,"WEEK 20","TREATMENT","2013-03-16T08:50",146],
["CDISCPILOT01","LB","CDISC009",244,"HCT","Hematocrit","HEMATOLOGY","38.0","%","34","48","0.38",0.38,"",0.34,0.48,"NORMAL","",11,"WEEK 20","TREATMENT","2013-03-16T08:50",146],
["CDISCPILOT01","LB","CDISC009",245,"HGB","Hemoglobin","HEMATOLOGY","13.0","g/dL","11.5","15.8","8.0678",8.0678,"mmol/L",7.14,9.81,"NORMAL","",11,"WEEK 20","TREATMENT","2013-03-16T08:50",146],
["CDISCPILOT01","LB","CDISC009",247,"LYM","Lymphocytes","HEMATOLOGY","1.33","10^9/L","0.8","3","1.33",1.33,"10^9/L",0.8,3,"NORMAL","",11,"WEEK 20","TREATMENT","2013-03-16T08:50",146],
["CDISCPILOT01","LB","CDISC009",248,"MCH","Ery. Mean Corpuscular Hemoglobin","HEMATOLOGY","31","pg","26","34","1.92386",1.92386,"fmol",1.6,2.1,"NORMAL","",11,"WEEK 20","TREATMENT","2013-03-16T08:50",146],
["CDISCPILOT01","LB","CDISC009",249,"MCHC","Ery. Mean Corpuscular HGB Concentration","HEMATOLOGY","34","g/dL","31","38","21.1004",21.1004,"mmol/L",19,24,"NORMAL","",11,"WEEK 20","TREATMENT","2013-03-16T08:50",146],
["CDISCPILOT01","LB","CDISC009",250,"MCV","Ery. Mean Corpuscular Volume","HEMATOLOGY","91","fL","80","100","91",91,"fL",80,100,"NORMAL","",11,"WEEK 20","TREATMENT","2013-03-16T08:50",146],
["CDISCPILOT01","LB","CDISC009",251,"MONO","Monocytes","HEMATOLOGY","0.33","10^9/L","0.12","0.92","0.33",0.33,"10^9/L",0.12,0.92,"NORMAL","",11,"WEEK 20","TREATMENT","2013-03-16T08:50",146],
["CDISCPILOT01","LB","CDISC009",254,"PLAT","Platelets","HEMATOLOGY","154","10^9/L","130","394","154",154,"10^9/L",130,394,"NORMAL","",11,"WEEK 20","TREATMENT","2013-03-16T08:50",146],
["CDISCPILOT01","LB","CDISC009",256,"RBC","Erythrocytes","HEMATOLOGY","4.20","10^12/L","3.9","5.5","4.2",4.2,"10^12/L",3.9,5.5,"NORMAL","",11,"WEEK 20","TREATMENT","2013-03-16T08:50",146],
["CDISCPILOT01","LB","CDISC009",258,"WBC","Leukocytes","HEMATOLOGY","5.29","10^9/L","3.8","10.7","5.29",5.29,"10^9/L",3.8,10.7,"NORMAL","",11,"WEEK 20","TREATMENT","2013-03-16T08:50",146],
["CDISCPILOT01","LB","CDISC009",263,"BASO","Basophils","HEMATOLOGY","0.05","10^9/L","0","0.2","0.05",0.05,"10^9/L",0,0.2,"NORMAL","",12,"WEEK 24","TREATMENT","2013-04-10T12:30",171],
["CDISCPILOT01","LB","CDISC009",272,"EOS","Eosinophils","HEMATOLOGY","0.06","10^9/L","0","0.57","0.06",0.06,"10^9/L",0,0.57,"NORMAL","",12,"WEEK 24","TREATMENT","2013-04-10T12:30",171],
["CDISCPILOT01","LB","CDISC009",275,"HCT","Hematocrit","HEMATOLOGY","42.0","%","34","48","0.42",0.42,"",0.34,0.48,"NORMAL","",12,"WEEK 24","TREATMENT","2013-04-10T12:30",171],
["CDISCPILOT01","LB","CDISC009",276,"HGB","Hemoglobin","HEMATOLOGY","13.8","g/dL","11.5","15.8","8.56428",8.56428,"mmol/L",7.14,9.81,"NORMAL","",12,"WEEK 24","TREATMENT","2013-04-10T12:30",171],
["CDISCPILOT01","LB","CDISC009",279,"LYM","Lymphocytes","HEMATOLOGY","1.74","10^9/L","0.8","3","1.74",1.74,"10^9/L",0.8,3,"NORMAL","",12,"WEEK 24","TREATMENT","2013-04-10T12:30",171],
["CDISCPILOT01","LB","CDISC009",280,"MCH","Ery. Mean Corpuscular Hemoglobin","HEMATOLOGY","31","pg","26","34","1.92386",1.92386,"fmol",1.6,2.1,"NORMAL","",12,"WEEK 24","TREATMENT","2013-04-10T12:30",171],
["CDISCPILOT01","LB","CDISC009",281,"MCHC","Ery. Mean Corpuscular HGB Concentration","HEMATOLOGY","33","g/dL","31","38","20.4798",20.4798,"mmol/L",19,24,"NORMAL","",12,"WEEK 24","TREATMENT","2013-04-10T12:30",171],
["CDISCPILOT01","LB","CDISC009",282,"MCV","Ery. Mean Corpuscular Volume","HEMATOLOGY","93","fL","80","100","93",93,"fL",80,100,"NORMAL","",12,"WEEK 24","TREATMENT","2013-04-10T12:30",171],
["CDISCPILOT01","LB","CDISC009",283,"MONO","Monocytes","HEMATOLOGY","0.33","10^9/L","0.12","0.92","0.33",0.33,"10^9/L",0.12,0.92,"NORMAL","",12,"WEEK 24","TREATMENT","2013-04-10T12:30",171],
["CDISCPILOT01","LB","CDISC009",287,"PLAT","Platelets","HEMATOLOGY","186","10^9/L","130","394","186",186,"10^9/L",130,394,"NORMAL","",12,"WEEK 24","TREATMENT","2013-04-10T12:30",171],
["CDISCPILOT01","LB","CDISC009",289,"RBC","Erythrocytes","HEMATOLOGY","4.50","10^12/L","3.9","5.5","4.5",4.5,"10^12/L",3.9,5.5,"NORMAL","",12,"WEEK 24","TREATMENT","2013-04-10T12:30",171],
["CDISCPILOT01","LB","CDISC009",293,"WBC","Leukocytes","HEMATOLOGY","5.60","10^9/L","3.8","10.7","5.6",5.6,"10^9/L",3.8,10.7,"NORMAL","",12,"WEEK 24","TREATMENT","2013-04-10T12:30",171],
["CDISCPILOT01","LB","CDISC009",298,"BASO","Basophils","HEMATOLOGY","0.05","10^9/L","0","0.2","0.05",0.05,"10^9/L",0,0.2,"NORMAL","",13,"WEEK 26","TREATMENT","2013-04-28T12:40",189],
["CDISCPILOT01","LB","CDISC009",306,"EOS","Eosinophils","HEMATOLOGY","0.06","10^9/L","0","0.57","0.06",0.06,"10^9/L",0,0.57,"NORMAL","",13,"WEEK 26","TREATMENT","2013-04-28T12:40",189],
["CDISCPILOT01","LB","CDISC009",309,"HCT","Hematocrit","HEMATOLOGY","39.0","%","34","48","0.39",0.39,"",0.34,0.48,"NORMAL","",13,"WEEK 26","TREATMENT","2013-04-28T12:40",189],
["CDISCPILOT01","LB","CDISC009",310,"HGB","Hemoglobin","HEMATOLOGY","13.4","g/dL","11.5","15.8","8.31604",8.31604,"mmol/L",7.14,9.81,"NORMAL","",13,"WEEK 26","TREATMENT","2013-04-28T12:40",189],
["CDISCPILOT01","LB","CDISC009",312,"LYM","Lymphocytes","HEMATOLOGY","1.83","10^9/L","0.8","3","1.83",1.83,"10^9/L",0.8,3,"NORMAL","",13,"WEEK 26","TREATMENT","2013-04-28T12:40",189],
["CDISCPILOT01","LB","CDISC009",313,"MCH","Ery. Mean Corpuscular Hemoglobin","HEMATOLOGY","31","pg","26","34","1.92386",1.92386,"fmol",1.6,2.1,"NORMAL","",13,"WEEK 26","TREATMENT","2013-04-28T12:40",189],
["CDISCPILOT01","LB","CDISC009",314,"MCHC","Ery. Mean Corpuscular HGB Concentration","HEMATOLOGY","34","g/dL","31","38","21.1004",21.1004,"mmol/L",19,24,"NORMAL","",13,"WEEK 26","TREATMENT","2013-04-28T12:40",189],
["CDISCPILOT01","LB","CDISC009",315,"MCV","Ery. Mean Corpuscular Volume","HEMATOLOGY","90","fL","80","100","90",90,"fL",80,100,"NORMAL","",13,"WEEK 26","TREATMENT","2013-04-28T12:40",189],
["CDISCPILOT01","LB","CDISC009",316,"MONO","Monocytes","HEMATOLOGY","0.21","10^9/L","0.12","0.92","0.21",0.21,"10^9/L",0.12,0.92,"NORMAL","",13,"WEEK 26","TREATMENT","2013-04-28T12:40",189],
["CDISCPILOT01","LB","CDISC009",319,"PLAT","Platelets","HEMATOLOGY","176","10^9/L","130","394","176",176,"10^9/L",130,394,"NORMAL","",13,"WEEK 26","TREATMENT","2013-04-28T12:40",189],
["CDISCPILOT01","LB","CDISC009",321,"RBC","Erythrocytes","HEMATOLOGY","4.40","10^12/L","3.9","5.5","4.4",4.4,"10^12/L",3.9,5.5,"NORMAL","",13,"WEEK 26","TREATMENT","2013-04-28T12:40",189],
["CDISCPILOT01","LB","CDISC009",323,"WBC","Leukocytes","HEMATOLOGY","5.25","10^9/L","3.8","10.7","5.25",5.25,"10^9/L",3.8,10.7,"NORMAL","",13,"WEEK 26","TREATMENT","2013-04-28T12:40",189],
["CDISCPILOT01","LB","CDISC010",3,"ANISO","Anisocytes","HEMATOLOGY","1","","","","1",1,"",null,null,"ABNORMAL","Y",1,"SCREENING 1","SCREENING","2013-09-08T12:40",-13],
["CDISCPILOT01","LB","CDISC010",5,"BASO","Basophils","HEMATOLOGY","0.05","10^9/L","0","0.2","0.05",0.05,"10^9/L",0,0.2,"NORMAL","Y",1,"SCREENING 1","SCREENING","2013-09-08T12:40",-13],
["CDISCPILOT01","LB","CDISC010",14,"EOS","Eosinophils","HEMATOLOGY","0.23","10^9/L","0","0.57","0.23",0.23,"10^9/L",0,0.57,"NORMAL","Y",1,"SCREENING 1","SCREENING","2013-09-08T12:40",-13],
["CDISCPILOT01","LB","CDISC010",17,"HCT","Hematocrit","HEMATOLOGY","45.0","%","34","48","0.45",0.45,"",0.34,0.48,"NORMAL","Y",1,"SCREENING 1","SCREENING","2013-09-08T12:40",-13],
["CDISCPILOT01","LB","CDISC010",18,"HGB","Hemoglobin","HEMATOLOGY","13.9","g/dL","11.5","15.8","8.62634",8.62634,"mmol/L",7.14,9.81,"NORMAL","Y",1,"SCREENING 1","SCREENING","2013-09-08T12:40",-13],
["CDISCPILOT01","LB","CDISC010",20,"LYM","Lymphocytes","HEMATOLOGY","1.91","10^9/L","0.8","3","1.91",1.91,"10^9/L",0.8,3,"NORMAL","Y",1,"SCREENING 1","SCREENING","2013-09-08T12:40",-13],
["CDISCPILOT01","LB","CDISC010",21,"MCH","Ery. Mean Corpuscular Hemoglobin","HEMATOLOGY","32","pg","26","34","1.98592",1.98592,"fmol",1.6,2.1,"NORMAL","Y",1,"SCREENING 1","SCREENING","2013-09-08T12:40",-13],
["CDISCPILOT01","LB","CDISC010",22,"MCHC","Ery. Mean Corpuscular HGB Concentration","HEMATOLOGY","31","g/dL","31","38","19.2386",19.2386,"mmol/L",19,24,"NORMAL","Y",1,"SCREENING 1","SCREENING","2013-09-08T12:40",-13],
["CDISCPILOT01","LB","CDISC010",23,"MCV","Ery. Mean Corpuscular Volume","HEMATOLOGY","103","fL","80","100","103",103,"fL",80,100,"HIGH","Y",1,"SCREENING 1","SCREENING","2013-09-08T12:40",-13],
["CDISCPILOT01","LB","CDISC010",24,"MONO","Monocytes","HEMATOLOGY","0.46","10^9/L","0.12","0.92","0.46",0.46,"10^9/L",0.12,0.92,"NORMAL","Y",1,"SCREENING 1","SCREENING","2013-09-08T12:40",-13],
["CDISCPILOT01","LB","CDISC010",27,"PLAT","Platelets","HEMATOLOGY","216","10^9/L","130","394","216",216,"10^9/L",130,394,"NORMAL","Y",1,"SCREENING 1","SCREENING","2013-09-08T12:40",-13],
["CDISCPILOT01","LB","CDISC010",29,"RBC","Erythrocytes","HEMATOLOGY","4.40","10^12/L","3.9","5.5","4.4",4.4,"10^12/L",3.9,5.5,"NORMAL","Y",1,"SCREENING 1","SCREENING","2013-09-08T12:40",-13],
["CDISCPILOT01","LB","CDISC010",35,"WBC","Leukocytes","HEMATOLOGY","8.54","10^9/L","3.8","10.7","8.54",8.54,"10^9/L",3.8,10.7,"NORMAL","Y",1,"SCREENING 1","SCREENING","2013-09-08T12:40",-13],
["CDISCPILOT01","LB","CDISC010",40,"BASO","Basophils","HEMATOLOGY","0.06","10^9/L","0","0.2","0.06",0.06,"10^9/L",0,0.2,"NORMAL","",1.01,"SCREENING 1: UNSCHEDULED 01","SCREENING","2013-09-19T10:35",-2],
["CDISCPILOT01","LB","CDISC010",48,"EOS","Eosinophils","HEMATOLOGY","0.49","10^9/L","0","0.57","0.49",0.49,"10^9/L",0,0.57,"NORMAL","",1.01,"SCREENING 1: UNSCHEDULED 01","SCREENING","2013-09-19T10:35",-2],
["CDISCPILOT01","LB","CDISC010",51,"HCT","Hematocrit","HEMATOLOGY","46.0","%","34","48","0.46",0.46,"",0.34,0.48,"NORMAL","",1.01,"SCREENING 1: UNSCHEDULED 01","SCREENING","2013-09-19T10:35",-2],
["CDISCPILOT01","LB","CDISC010",52,"HGB","Hemoglobin","HEMATOLOGY","14.3","g/dL","11.5","15.8","8.87458",8.87458,"mmol/L",7.14,9.81,"NORMAL","",1.01,"SCREENING 1: UNSCHEDULED 01","SCREENING","2013-09-19T10:35",-2],
["CDISCPILOT01","LB","CDISC010",54,"LYM","Lymphocytes","HEMATOLOGY","1.90","10^9/L","0.8","3","1.9",1.9,"10^9/L",0.8,3,"NORMAL","",1.01,"SCREENING 1: UNSCHEDULED 01","SCREENING","2013-09-19T10:35",-2],
["CDISCPILOT01","LB","CDISC010",55,"MCH","Ery. Mean Corpuscular Hemoglobin","HEMATOLOGY","32","pg","26","34","1.98592",1.98592,"fmol",1.6,2.1,"NORMAL","",1.01,"SCREENING 1: UNSCHEDULED 01","SCREENING","2013-09-19T10:35",-2],
["CDISCPILOT01","LB","CDISC010",56,"MCHC","Ery. Mean Corpuscular HGB Concentration","HEMATOLOGY","31","g/dL","31","38","19.2386",19.2386,"mmol/L",19,24,"NORMAL","",1.01,"SCREENING 1: UNSCHEDULED 01","SCREENING","2013-09-19T10:35",-2],
["CDISCPILOT01","LB","CDISC010",57,"MCV","Ery. Mean Corpuscular Volume","HEMATOLOGY","102","fL","80","100","102",102,"fL",80,100,"HIGH","",1.01,"SCREENING 1: UNSCHEDULED 01","SCREENING","2013-09-19T10:35",-2],
["CDISCPILOT01","LB","CDISC010",58,"MONO","Monocytes","HEMATOLOGY","0.50","10^9/L","0.12","0.92","0.5",0.5,"10^9/L",0.12,0.92,"NORMAL","",1.01,"SCREENING 1: UNSCHEDULED 01","SCREENING","2013-09-19T10:35",-2],
["CDISCPILOT01","LB","CDISC010",61,"PLAT","Platelets","HEMATOLOGY","235","10^9/L","130","394","235",235,"10^9/L",130,394,"NORMAL","",1.01,"SCREENING 1: UNSCHEDULED 01","SCREENING","2013-09-19T10:35",-2],
["CDISCPILOT01","LB","CDISC010",63,"RBC","Erythrocytes","HEMATOLOGY","4.50","10^12/L","3.9","5.5","4.5",4.5,"10^12/L",3.9,5.5,"NORMAL","",1.01,"SCREENING 1: UNSCHEDULED 01","SCREENING","2013-09-19T10:35",-2],
["CDISCPILOT01","LB","CDISC010",65,"WBC","Leukocytes","HEMATOLOGY","8.00","10^9/L","3.8","10.7","8",8,"10^9/L",3.8,10.7,"NORMAL","",1.01,"SCREENING 1: UNSCHEDULED 01","SCREENING","2013-09-19T10:35",-2],
["CDISCPILOT01","LB","CDISC011",5,"BASO","Basophils","HEMATOLOGY","0.03","10^9/L","0","0.2","0.03",0.03,"10^9/L",0,0.2,"NORMAL","Y",1,"SCREENING 1","SCREENING","2012-11-21T11:20",-16],
["CDISCPILOT01","LB","CDISC011",14,"EOS","Eosinophils","HEMATOLOGY","0.08","10^9/L","0","0.57","0.08",0.08,"10^9/L",0,0.57,"NORMAL","Y",1,"SCREENING 1","SCREENING","2012-11-21T11:20",-16],
["CDISCPILOT01","LB","CDISC011",17,"HCT","Hematocrit","HEMATOLOGY","47.0","%","37","51","0.47",0.47,"",0.37,0.51,"NORMAL","Y",1,"SCREENING 1","SCREENING","2012-11-21T11:20",-16],
["CDISCPILOT01","LB","CDISC011",18,"HGB","Hemoglobin","HEMATOLOGY","15.7","g/dL","12.5","17","9.74342",9.74342,"mmol/L",7.76,10.55,"NORMAL","Y",1,"SCREENING 1","SCREENING","2012-11-21T11:20",-16],
["CDISCPILOT01","LB","CDISC011",21,"LYM","Lymphocytes","HEMATOLOGY","1.63","10^9/L","0.8","3","1.63",1.63,"10^9/L",0.8,3,"NORMAL","Y",1,"SCREENING 1","SCREENING","2012-11-21T11:20",-16],
["CDISCPILOT01","LB","CDISC011",22,"MCH","Ery. Mean Corpuscular Hemoglobin","HEMATOLOGY","32","pg","26","34","1.98592",1.98592,"fmol",1.6,2.1,"NORMAL","Y",1,"SCREENING 1","SCREENING","2012-11-21T11:20",-16],
["CDISCPILOT01","LB","CDISC011",23,"MCHC","Ery. Mean Corpuscular HGB Concentration","HEMATOLOGY","33","g/dL","31","38","20.4798",20.4798,"mmol/L",19,24,"NORMAL","Y",1,"SCREENING 1","SCREENING","2012-11-21T11:20",-16],
["CDISCPILOT01","LB","CDISC011",24,"MCV","Ery. Mean Corpuscular Volume","HEMATOLOGY","95","fL","80","100","95",95,"fL",80,100,"NORMAL","Y",1,"SCREENING 1","SCREENING","2012-11-21T11:20",-16],
["CDISCPILOT01","LB","CDISC011",25,"MONO","Monocytes","HEMATOLOGY","0.47","10^9/L","0.12","0.92","0.47",0.47,"10^9/L",0.12,0.92,"NORMAL","Y",1,"SCREENING 1","SCREENING","2012-11-21T11:20",-16],
["CDISCPILOT01","LB","CDISC011",29,"PLAT","Platelets","HEMATOLOGY","293","10^9/L","130","394","293",293,"10^9/L",130,394,"NORMAL","Y",1,"SCREENING 1","SCREENING","2012-11-21T11:20",-16],
["CDISCPILOT01","LB","CDISC011",31,"RBC","Erythrocytes","HEMATOLOGY","5.00","10^12/L","4","5.8","5",5,"10^12/L",4,5.8,"NORMAL","Y",1,"SCREENING 1","SCREENING","2012-11-21T11:20",-16],
["CDISCPILOT01","LB","CDISC011",37,"WBC","Leukocytes","HEMATOLOGY","7.84","10^9/L","3.8","10.7","7.84",7.84,"10^9/L",3.8,10.7,"NORMAL","Y",1,"SCREENING 1","SCREENING","2012-11-21T11:20",-16],
["CDISCPILOT01","LB","CDISC011",42,"BASO","Basophils","HEMATOLOGY","0.02","10^9/L","0","0.2","0.02",0.02,"10^9/L",0,0.2,"NORMAL","",4,"WEEK 2","TREATMENT","2012-12-21T08:30",15],
["CDISCPILOT01","LB","CDISC011",51,"EOS","Eosinophils","HEMATOLOGY","0.04","10^9/L","0","0.57","0.04",0.04,"10^9/L",0,0.57,"NORMAL","",4,"WEEK 2","TREATMENT","2012-12-21T08:30",15],
["CDISCPILOT01","LB","CDISC011",54,"HCT","Hematocrit","HEMATOLOGY","44.0","%","37","51","0.44",0.44,"",0.37,0.51,"NORMAL","",4,"WEEK 2","TREATMENT","2012-12-21T08:30",15],
["CDISCPILOT01","LB","CDISC011",55,"HGB","Hemoglobin","HEMATOLOGY","15.0","g/dL","12.5","17","9.309",9.309,"mmol/L",7.76,10.55,"NORMAL","",4,"WEEK 2","TREATMENT","2012-12-21T08:30",15],
["CDISCPILOT01","LB","CDISC011",58,"LYM","Lymphocytes","HEMATOLOGY","1.71","10^9/L","0.8","3","1.71",1.71,"10^9/L",0.8,3,"NORMAL","",4,"WEEK 2","TREATMENT","2012-12-21T08:30",15],
["CDISCPILOT01","LB","CDISC011",59,"MCH","Ery. Mean Corpuscular Hemoglobin","HEMATOLOGY","31","pg","26","34","1.92386",1.92386,"fmol",1.6,2.1,"NORMAL","",4,"WEEK 2","TREATMENT","2012-12-21T08:30",15],
["CDISCPILOT01","LB","CDISC011",60,"MCHC","Ery. Mean Corpuscular HGB Concentration","HEMATOLOGY","34","g/dL","31","38","21.1004",21.1004,"mmol/L",19,24,"NORMAL","",4,"WEEK 2","TREATMENT","2012-12-21T08:30",15],
["CDISCPILOT01","LB","CDISC011",61,"MCV","Ery. Mean Corpuscular Volume","HEMATOLOGY","92","fL","80","100","92",92,"fL",80,100,"NORMAL","",4,"WEEK 2","TREATMENT","2012-12-21T08:30",15],
["CDISCPILOT01","LB","CDISC011",62,"MONO","Monocytes","HEMATOLOGY","0.31","10^9/L","0.12","0.92","0.31",0.31,"10^9/L",0.12,0.92,"NORMAL","",4,"WEEK 2","TREATMENT","2012-12-21T08:30",15],
["CDISCPILOT01","LB","CDISC011",66,"PLAT","Platelets","HEMATOLOGY","254","10^9/L","130","394","254",254,"10^9/L",130,394,"NORMAL","",4,"WEEK 2","TREATMENT","2012-12-21T08:30",15],
["CDISCPILOT01","LB","CDISC011",68,"RBC","Erythrocytes","HEMATOLOGY","4.80","10^12/L","4","5.8","4.8",4.8,"10^12/L",4,5.8,"NORMAL","",4,"WEEK 2","TREATMENT","2012-12-21T08:30",15],
["CDISCPILOT01","LB","CDISC011",72,"WBC","Leukocytes","HEMATOLOGY","5.44","10^9/L","3.8","10.7","5.44",5.44,"10^9/L",3.8,10.7,"NORMAL","",4,"WEEK 2","TREATMENT","2012-12-21T08:30",15],
["CDISCPILOT01","LB","CDISC011",77,"BASO","Basophils","HEMATOLOGY","0.02","10^9/L","0","0.2","0.02",0.02,"10^9/L",0,0.2,"NORMAL","",5,"WEEK 4","TREATMENT","2013-01-01T09:30",26],
["CDISCPILOT01","LB","CDISC011",85,"EOS","Eosinophils","HEMATOLOGY","0.03","10^9/L","0","0.57","0.03",0.03,"10^9/L",0,0.57,"NORMAL","",5,"WEEK 4","TREATMENT","2013-01-01T09:30",26],
["CDISCPILOT01","LB","CDISC011",88,"HCT","Hematocrit","HEMATOLOGY","51.0","%","37","51","0.51",0.51,"",0.37,0.51,"NORMAL","",5,"WEEK 4","TREATMENT","2013-01-01T09:30",26],
["CDISCPILOT01","LB","CDISC011",89,"HGB","Hemoglobin","HEMATOLOGY","16.5","g/dL","12.5","17","10.2399",10.2399,"mmol/L",7.76,10.55,"NORMAL","",5,"WEEK 4","TREATMENT","2013-01-01T09:30",26],
["CDISCPILOT01","LB","CDISC011",91,"LYM","Lymphocytes","HEMATOLOGY","1.36","10^9/L","0.8","3","1.36",1.36,"10^9/L",0.8,3,"NORMAL","",5,"WEEK 4","TREATMENT","2013-01-01T09:30",26],
["CDISCPILOT01","LB","CDISC011",92,"MCH","Ery. Mean Corpuscular Hemoglobin","HEMATOLOGY","31","pg","26","34","1.92386",1.92386,"fmol",1.6,2.1,"NORMAL","",5,"WEEK 4","TREATMENT","2013-01-01T09:30",26],
["CDISCPILOT01","LB","CDISC011",93,"MCHC","Ery. Mean Corpuscular HGB Concentration","HEMATOLOGY","32","g/dL","31","38","19.8592",19.8592,"mmol/L",19,24,"NORMAL","",5,"WEEK 4","TREATMENT","2013-01-01T09:30",26],
["CDISCPILOT01","LB","CDISC011",94,"MCV","Ery. Mean Corpuscular Volume","HEMATOLOGY","97","fL","80","100","97",97,"fL",80,100,"NORMAL","",5,"WEEK 4","TREATMENT","2013-01-01T09:30",26],
["CDISCPILOT01","LB","CDISC011",95,"MONO","Monocytes","HEMATOLOGY","0.25","10^9/L","0.12","0.92","0.25",0.25,"10^9/L",0.12,0.92,"NORMAL","",5,"WEEK 4","TREATMENT","2013-01-01T09:30",26],
["CDISCPILOT01","LB","CDISC011",98,"PLAT","Platelets","HEMATOLOGY","280","10^9/L","130","394","280",280,"10^9/L",130,394,"NORMAL","",5,"WEEK 4","TREATMENT","2013-01-01T09:30",26],
["CDISCPILOT01","LB","CDISC011",100,"RBC","Erythrocytes","HEMATOLOGY","5.30","10^12/L","4","5.8","5.3",5.3,"10^12/L",4,5.8,"NORMAL","",5,"WEEK 4","TREATMENT","2013-01-01T09:30",26],
["CDISCPILOT01","LB","CDISC011",102,"WBC","Leukocytes","HEMATOLOGY","5.43","10^9/L","3.8","10.7","5.43",5.43,"10^9/L",3.8,10.7,"NORMAL","",5,"WEEK 4","TREATMENT","2013-01-01T09:30",26],
["CDISCPILOT01","LB","CDISC011",107,"BASO","Basophils","HEMATOLOGY","0.01","10^9/L","0","0.2","0.01",0.01,"10^9/L",0,0.2,"NORMAL","",7,"WEEK 6","TREATMENT","2013-01-15T11:00",40],
["CDISCPILOT01","LB","CDISC011",115,"EOS","Eosinophils","HEMATOLOGY","0.07","10^9/L","0","0.57","0.07",0.07,"10^9/L",0,0.57,"NORMAL","",7,"WEEK 6","TREATMENT","2013-01-15T11:00",40],
["CDISCPILOT01","LB","CDISC011",118,"HCT","Hematocrit","HEMATOLOGY","43.0","%","37","51","0.43",0.43,"",0.37,0.51,"NORMAL","",7,"WEEK 6","TREATMENT","2013-01-15T11:00",40],
["CDISCPILOT01","LB","CDISC011",119,"HGB","Hemoglobin","HEMATOLOGY","14.5","g/dL","12.5","17","8.9987",8.9987,"mmol/L",7.76,10.55,"NORMAL","",7,"WEEK 6","TREATMENT","2013-01-15T11:00",40],
["CDISCPILOT01","LB","CDISC011",121,"LYM","Lymphocytes","HEMATOLOGY","1.43","10^9/L","0.8","3","1.43",1.43,"10^9/L",0.8,3,"NORMAL","",7,"WEEK 6","TREATMENT","2013-01-15T11:00",40],
["CDISCPILOT01","LB","CDISC011",122,"MCH","Ery. Mean Corpuscular Hemoglobin","HEMATOLOGY","31","pg","26","34","1.92386",1.92386,"fmol",1.6,2.1,"NORMAL","",7,"WEEK 6","TREATMENT","2013-01-15T11:00",40],
["CDISCPILOT01","LB","CDISC011",123,"MCHC","Ery. Mean Corpuscular HGB Concentration","HEMATOLOGY","34","g/dL","31","38","21.1004",21.1004,"mmol/L",19,24,"NORMAL","",7,"WEEK 6","TREATMENT","2013-01-15T11:00",40],
["CDISCPILOT01","LB","CDISC011",124,"MCV","Ery. Mean Corpuscular Volume","HEMATOLOGY","93","fL","80","100","93",93,"fL",80,100,"NORMAL","",7,"WEEK 6","TREATMENT","2013-01-15T11:00",40],
["CDISCPILOT01","LB","CDISC011",125,"MONO","Monocytes","HEMATOLOGY","0.34","10^9/L","0.12","0.92","0.34",0.34,"10^9/L",0.12,0.92,"NORMAL","",7,"WEEK 6","TREATMENT","2013-01-15T11:00",40],
["CDISCPILOT01","LB","CDISC011",128,"PLAT","Platelets","HEMATOLOGY","231","10^9/L","130","394","231",231,"10^9/L",130,394,"NORMAL","",7,"WEEK 6","TREATMENT","2013-01-15T11:00",40],
["CDISCPILOT01","LB","CDISC011",130,"RBC","Erythrocytes","HEMATOLOGY","4.70","10^12/L","4","5.8","4.7",4.7,"10^12/L",4,5.8,"NORMAL","",7,"WEEK 6","TREATMENT","2013-01-15T11:00",40],
["CDISCPILOT01","LB","CDISC011",132,"WBC","Leukocytes","HEMATOLOGY","4.83","10^9/L","3.8","10.7","4.83",4.83,"10^9/L",3.8,10.7,"NORMAL","",7,"WEEK 6","TREATMENT","2013-01-15T11:00",40],
["CDISCPILOT01","LB","CDISC011",137,"BASO","Basophils","HEMATOLOGY","0.04","10^9/L","0","0.2","0.04",0.04,"10^9/L",0,0.2,"NORMAL","",8,"WEEK 8","TREATMENT","2013-01-29T09:30",54],
["CDISCPILOT01","LB","CDISC011",145,"EOS","Eosinophils","HEMATOLOGY","0.07","10^9/L","0","0.57","0.07",0.07,"10^9/L",0,0.57,"NORMAL","",8,"WEEK 8","TREATMENT","2013-01-29T09:30",54],
["CDISCPILOT01","LB","CDISC011",148,"HCT","Hematocrit","HEMATOLOGY","45.0","%","37","51","0.45",0.45,"",0.37,0.51,"NORMAL","",8,"WEEK 8","TREATMENT","2013-01-29T09:30",54],
["CDISCPILOT01","LB","CDISC011",149,"HGB","Hemoglobin","HEMATOLOGY","15.0","g/dL","12.5","17","9.309",9.309,"mmol/L",7.76,10.55,"NORMAL","",8,"WEEK 8","TREATMENT","2013-01-29T09:30",54],
["CDISCPILOT01","LB","CDISC011",151,"LYM","Lymphocytes","HEMATOLOGY","1.33","10^9/L","0.8","3","1.33",1.33,"10^9/L",0.8,3,"NORMAL","",8,"WEEK 8","TREATMENT","2013-01-29T09:30",54],
["CDISCPILOT01","LB","CDISC011",152,"MCH","Ery. Mean Corpuscular Hemoglobin","HEMATOLOGY","31","pg","26","34","1.92386",1.92386,"fmol",1.6,2.1,"NORMAL","",8,"WEEK 8","TREATMENT","2013-01-29T09:30",54],
["CDISCPILOT01","LB","CDISC011",153,"MCHC","Ery. Mean Corpuscular HGB Concentration","HEMATOLOGY","33","g/dL","31","38","20.4798",20.4798,"mmol/L",19,24,"NORMAL","",8,"WEEK 8","TREATMENT","2013-01-29T09:30",54],
["CDISCPILOT01","LB","CDISC011",154,"MCV","Ery. Mean Corpuscular Volume","HEMATOLOGY","94","fL","80","100","94",94,"fL",80,100,"NORMAL","",8,"WEEK 8","TREATMENT","2013-01-29T09:30",54],
["CDISCPILOT01","LB","CDISC011",155,"MONO","Monocytes","HEMATOLOGY","0.29","10^9/L","0.12","0.92","0.29",0.29,"10^9/L",0.12,0.92,"NORMAL","",8,"WEEK 8","TREATMENT","2013-01-29T09:30",54],
["CDISCPILOT01","LB","CDISC011",158,"PLAT","Platelets","HEMATOLOGY","267","10^9/L","130","394","267",267,"10^9/L",130,394,"NORMAL","",8,"WEEK 8","TREATMENT","2013-01-29T09:30",54],
["CDISCPILOT01","LB","CDISC011",160,"RBC","Erythrocytes","HEMATOLOGY","4.80","10^12/L","4","5.8","4.8",4.8,"10^12/L",4,5.8,"NORMAL","",8,"WEEK 8","TREATMENT","2013-01-29T09:30",54],
["CDISCPILOT01","LB","CDISC011",162,"WBC","Leukocytes","HEMATOLOGY","5.47","10^9/L","3.8","10.7","5.47",5.47,"10^9/L",3.8,10.7,"NORMAL","",8,"WEEK 8","TREATMENT","2013-01-29T09:30",54],
["CDISCPILOT01","LB","CDISC011",167,"BASO","Basophils","HEMATOLOGY","0.03","10^9/L","0","0.2","0.03",0.03,"10^9/L",0,0.2,"NORMAL","",9,"WEEK 12","TREATMENT","2013-02-27T13:55",83],
["CDISCPILOT01","LB","CDISC011",176,"EOS","Eosinophils","HEMATOLOGY","0.06","10^9/L","0","0.57","0.06",0.06,"10^9/L",0,0.57,"NORMAL","",9,"WEEK 12","TREATMENT","2013-02-27T13:55",83],
["CDISCPILOT01","LB","CDISC011",178,"HCT","Hematocrit","HEMATOLOGY","47.0","%","37","51","0.47",0.47,"",0.37,0.51,"NORMAL","",9,"WEEK 12","TREATMENT","2013-02-27T13:55",83],
["CDISCPILOT01","LB","CDISC011",179,"HGB","Hemoglobin","HEMATOLOGY","14.3","g/dL","12.5","17","8.87458",8.87458,"mmol/L",7.76,10.55,"NORMAL","",9,"WEEK 12","TREATMENT","2013-02-27T13:55",83],
["CDISCPILOT01","LB","CDISC011",182,"LYM","Lymphocytes","HEMATOLOGY","2.22","10^9/L","0.8","3","2.22",2.22,"10^9/L",0.8,3,"NORMAL","",9,"WEEK 12","TREATMENT","2013-02-27T13:55",83],
["CDISCPILOT01","LB","CDISC011",183,"MACROCY","Macrocytes","HEMATOLOGY","1","","","","1",1,"",null,null,"ABNORMAL","",9,"WEEK 12","TREATMENT","2013-02-27T13:55",83],
["CDISCPILOT01","LB","CDISC011",184,"MCH","Ery. Mean Corpuscular Hemoglobin","HEMATOLOGY","31","pg","26","34","1.92386",1.92386,"fmol",1.6,2.1,"NORMAL","",9,"WEEK 12","TREATMENT","2013-02-27T13:55",83],
["CDISCPILOT01","LB","CDISC011",185,"MCHC","Ery. Mean Corpuscular HGB Concentration","HEMATOLOGY","31","g/dL","31","38","19.2386",19.2386,"mmol/L",19,24,"NORMAL","",9,"WEEK 12","TREATMENT","2013-02-27T13:55",83],
["CDISCPILOT01","LB","CDISC011",186,"MCV","Ery. Mean Corpuscular Volume","HEMATOLOGY","101","fL","80","100","101",101,"fL",80,100,"HIGH","",9,"WEEK 12","TREATMENT","2013-02-27T13:55",83],
["CDISCPILOT01","LB","CDISC011",187,"MONO","Monocytes","HEMATOLOGY","0.36","10^9/L","0.12","0.92","0.36",0.36,"10^9/L",0.12,0.92,"NORMAL","",9,"WEEK 12","TREATMENT","2013-02-27T13:55",83],
["CDISCPILOT01","LB","CDISC011",191,"PLAT","Platelets","HEMATOLOGY","271","10^9/L","130","394","271",271,"10^9/L",130,394,"NORMAL","",9,"WEEK 12","TREATMENT","2013-02-27T13:55",83],
["CDISCPILOT01","LB","CDISC011",193,"RBC","Erythrocytes","HEMATOLOGY","4.70","10^12/L","4","5.8","4.7",4.7,"10^12/L",4,5.8,"NORMAL","",9,"WEEK 12","TREATMENT","2013-02-27T13:55",83],
["CDISCPILOT01","LB","CDISC011",197,"WBC","Leukocytes","HEMATOLOGY","6.51","10^9/L","3.8","10.7","6.51",6.51,"10^9/L",3.8,10.7,"NORMAL","",9,"WEEK 12","TREATMENT","2013-02-27T13:55",83],
["CDISCPILOT01","LB","CDISC011",202,"BASO","Basophils","HEMATOLOGY","0.02","10^9/L","0","0.2","0.02",0.02,"10^9/L",0,0.2,"NORMAL","",10,"WEEK 16","TREATMENT","2013-03-27T09:05",111],
["CDISCPILOT01","LB","CDISC011",210,"EOS","Eosinophils","HEMATOLOGY","0.13","10^9/L","0","0.57","0.13",0.13,"10^9/L",0,0.57,"NORMAL","",10,"WEEK 16","TREATMENT","2013-03-27T09:05",111],
["CDISCPILOT01","LB","CDISC011",213,"HCT","Hematocrit","HEMATOLOGY","45.0","%","37","51","0.45",0.45,"",0.37,0.51,"NORMAL","",10,"WEEK 16","TREATMENT","2013-03-27T09:05",111],
["CDISCPILOT01","LB","CDISC011",214,"HGB","Hemoglobin","HEMATOLOGY","13.7","g/dL","12.5","17","8.50222",8.50222,"mmol/L",7.76,10.55,"NORMAL","",10,"WEEK 16","TREATMENT","2013-03-27T09:05",111],
["CDISCPILOT01","LB","CDISC011",216,"LYM","Lymphocytes","HEMATOLOGY","1.58","10^9/L","0.8","3","1.58",1.58,"10^9/L",0.8,3,"NORMAL","",10,"WEEK 16","TREATMENT","2013-03-27T09:05",111],
["CDISCPILOT01","LB","CDISC011",217,"MCH","Ery. Mean Corpuscular Hemoglobin","HEMATOLOGY","29","pg","26","34","1.79974",1.79974,"fmol",1.6,2.1,"NORMAL","",10,"WEEK 16","TREATMENT","2013-03-27T09:05",111],
["CDISCPILOT01","LB","CDISC011",218,"MCHC","Ery. Mean Corpuscular HGB Concentration","HEMATOLOGY","31","g/dL","31","38","19.2386",19.2386,"mmol/L",19,24,"NORMAL","",10,"WEEK 16","TREATMENT","2013-03-27T09:05",111],
["CDISCPILOT01","LB","CDISC011",219,"MCV","Ery. Mean Corpuscular Volume","HEMATOLOGY","96","fL","80","100","96",96,"fL",80,100,"NORMAL","",10,"WEEK 16","TREATMENT","2013-03-27T09:05",111],
["CDISCPILOT01","LB","CDISC011",220,"MONO","Monocytes","HEMATOLOGY","0.39","10^9/L","0.12","0.92","0.39",0.39,"10^9/L",0.12,0.92,"NORMAL","",10,"WEEK 16","TREATMENT","2013-03-27T09:05",111],
["CDISCPILOT01","LB","CDISC011",223,"PLAT","Platelets","HEMATOLOGY","253","10^9/L","130","394","253",253,"10^9/L",130,394,"NORMAL","",10,"WEEK 16","TREATMENT","2013-03-27T09:05",111],
["CDISCPILOT01","LB","CDISC011",225,"RBC","Erythrocytes","HEMATOLOGY","4.70","10^12/L","4","5.8","4.7",4.7,"10^12/L",4,5.8,"NORMAL","",10,"WEEK 16","TREATMENT","2013-03-27T09:05",111],
["CDISCPILOT01","LB","CDISC011",227,"WBC","Leukocytes","HEMATOLOGY","6.49","10^9/L","3.8","10.7","6.49",6.49,"10^9/L",3.8,10.7,"NORMAL","",10,"WEEK 16","TREATMENT","2013-03-27T09:05",111],
["CDISCPILOT01","LB","CDISC011",232,"BASO","Basophils","HEMATOLOGY","0.05","10^9/L","0","0.2","0.05",0.05,"10^9/L",0,0.2,"NORMAL","",11,"WEEK 20","TREATMENT","2013-04-23T15:45",138],
["CDISCPILOT01","LB","CDISC011",240,"EOS","Eosinophils","HEMATOLOGY","0.16","10^9/L","0","0.57","0.16",0.16,"10^9/L",0,0.57,"NORMAL","",11,"WEEK 20","TREATMENT","2013-04-23T15:45",138],
["CDISCPILOT01","LB","CDISC011",243,"HCT","Hematocrit","HEMATOLOGY","49.0","%","37","51","0.49",0.49,"",0.37,0.51,"NORMAL","",11,"WEEK 20","TREATMENT","2013-04-23T15:45",138],
["CDISCPILOT01","LB","CDISC011",244,"HGB","Hemoglobin","HEMATOLOGY","14.9","g/dL","12.5","17","9.24694",9.24694,"mmol/L",7.76,10.55,"NORMAL","",11,"WEEK 20","TREATMENT","2013-04-23T15:45",138],
["CDISCPILOT01","LB","CDISC011",246,"LYM","Lymphocytes","HEMATOLOGY","2.13","10^9/L","0.8","3","2.13",2.13,"10^9/L",0.8,3,"NORMAL","",11,"WEEK 20","TREATMENT","2013-04-23T15:45",138],
["CDISCPILOT01","LB","CDISC011",247,"MCH","Ery. Mean Corpuscular Hemoglobin","HEMATOLOGY","30","pg","26","34","1.8618",1.8618,"fmol",1.6,2.1,"NORMAL","",11,"WEEK 20","TREATMENT","2013-04-23T15:45",138],
["CDISCPILOT01","LB","CDISC011",248,"MCHC","Ery. Mean Corpuscular HGB Concentration","HEMATOLOGY","30","g/dL","31","38","18.618",18.618,"mmol/L",19,24,"LOW","",11,"WEEK 20","TREATMENT","2013-04-23T15:45",138],
["CDISCPILOT01","LB","CDISC011",249,"MCV","Ery. Mean Corpuscular Volume","HEMATOLOGY","98","fL","80","100","98",98,"fL",80,100,"NORMAL","",11,"WEEK 20","TREATMENT","2013-04-23T15:45",138],
["CDISCPILOT01","LB","CDISC011",250,"MONO","Monocytes","HEMATOLOGY","0.47","10^9/L","0.12","0.92","0.47",0.47,"10^9/L",0.12,0.92,"NORMAL","",11,"WEEK 20","TREATMENT","2013-04-23T15:45",138],
["CDISCPILOT01","LB","CDISC011",253,"PLAT","Platelets","HEMATOLOGY","285","10^9/L","130","394","285",285,"10^9/L",130,394,"NORMAL","",11,"WEEK 20","TREATMENT","2013-04-23T15:45",138],
["CDISCPILOT01","LB","CDISC011",255,"RBC","Erythrocytes","HEMATOLOGY","5.00","10^12/L","4","5.8","5",5,"10^12/L",4,5.8,"NORMAL","",11,"WEEK 20","TREATMENT","2013-04-23T15:45",138],
["CDISCPILOT01","LB","CDISC011",257,"WBC","Leukocytes","HEMATOLOGY","7.67","10^9/L","3.8","10.7","7.67",7.67,"10^9/L",3.8,10.7,"NORMAL","",11,"WEEK 20","TREATMENT","2013-04-23T15:45",138],
["CDISCPILOT01","LB","CDISC011",262,"BASO","Basophils","HEMATOLOGY","0.02","10^9/L","0","0.2","0.02",0.02,"10^9/L",0,0.2,"NORMAL","",12,"WEEK 24","TREATMENT","2013-05-22T10:00",167],
["CDISCPILOT01","LB","CDISC011",271,"EOS","Eosinophils","HEMATOLOGY","0.05","10^9/L","0","0.57","0.05",0.05,"10^9/L",0,0.57,"NORMAL","",12,"WEEK 24","TREATMENT","2013-05-22T10:00",167],
["CDISCPILOT01","LB","CDISC011",274,"HCT","Hematocrit","HEMATOLOGY","47.0","%","37","51","0.47",0.47,"",0.37,0.51,"NORMAL","",12,"WEEK 24","TREATMENT","2013-05-22T10:00",167],
["CDISCPILOT01","LB","CDISC011",275,"HGB","Hemoglobin","HEMATOLOGY","14.7","g/dL","12.5","17","9.12282",9.12282,"mmol/L",7.76,10.55,"NORMAL","",12,"WEEK 24","TREATMENT","2013-05-22T10:00",167],
["CDISCPILOT01","LB","CDISC011",278,"LYM","Lymphocytes","HEMATOLOGY","1.34","10^9/L","0.8","3","1.34",1.34,"10^9/L",0.8,3,"NORMAL","",12,"WEEK 24","TREATMENT","2013-05-22T10:00",167],
["CDISCPILOT01","LB","CDISC011",279,"MCH","Ery. Mean Corpuscular Hemoglobin","HEMATOLOGY","30","pg","26","34","1.8618",1.8618,"fmol",1.6,2.1,"NORMAL","",12,"WEEK 24","TREATMENT","2013-05-22T10:00",167],
["CDISCPILOT01","LB","CDISC011",280,"MCHC","Ery. Mean Corpuscular HGB Concentration","HEMATOLOGY","32","g/dL","31","38","19.8592",19.8592,"mmol/L",19,24,"NORMAL","",12,"WEEK 24","TREATMENT","2013-05-22T10:00",167],
["CDISCPILOT01","LB","CDISC011",281,"MCV","Ery. Mean Corpuscular Volume","HEMATOLOGY","96","fL","80","100","96",96,"fL",80,100,"NORMAL","",12,"WEEK 24","TREATMENT","2013-05-22T10:00",167],
["CDISCPILOT01","LB","CDISC011",282,"MONO","Monocytes","HEMATOLOGY","0.39","10^9/L","0.12","0.92","0.39",0.39,"10^9/L",0.12,0.92,"NORMAL","",12,"WEEK 24","TREATMENT","2013-05-22T10:00",167],
["CDISCPILOT01","LB","CDISC011",286,"PLAT","Platelets","HEMATOLOGY","283","10^9/L","130","394","283",283,"10^9/L",130,394,"NORMAL","",12,"WEEK 24","TREATMENT","2013-05-22T10:00",167],
["CDISCPILOT01","LB","CDISC011",288,"RBC","Erythrocytes","HEMATOLOGY","4.90","10^12/L","4","5.8","4.9",4.9,"10^12/L",4,5.8,"NORMAL","",12,"WEEK 24","TREATMENT","2013-05-22T10:00",167],
["CDISCPILOT01","LB","CDISC011",292,"WBC","Leukocytes","HEMATOLOGY","5.83","10^9/L","3.8","10.7","5.83",5.83,"10^9/L",3.8,10.7,"NORMAL","",12,"WEEK 24","TREATMENT","2013-05-22T10:00",167],
["CDISCPILOT01","LB","CDISC011",297,"BASO","Basophils","HEMATOLOGY","0.05","10^9/L","0","0.2","0.05",0.05,"10^9/L",0,0.2,"NORMAL","",13,"WEEK 26","TREATMENT","2013-06-05",181],
["CDISCPILOT01","LB","CDISC011",305,"EOS","Eosinophils","HEMATOLOGY","0.06","10^9/L","0","0.57","0.06",0.06,"10^9/L",0,0.57,"NORMAL","",13,"WEEK 26","TREATMENT","2013-06-05",181],
["CDISCPILOT01","LB","CDISC011",308,"HCT","Hematocrit","HEMATOLOGY","48.0","%","37","51","0.48",0.48,"",0.37,0.51,"NORMAL","",13,"WEEK 26","TREATMENT","2013-06-05",181],
["CDISCPILOT01","LB","CDISC011",309,"HGB","Hemoglobin","HEMATOLOGY","14.1","g/dL","12.5","17","8.75046",8.75046,"mmol/L",7.76,10.55,"NORMAL","",13,"WEEK 26","TREATMENT","2013-06-05",181],
["CDISCPILOT01","LB","CDISC011",311,"LYM","Lymphocytes","HEMATOLOGY","1.74","10^9/L","0.8","3","1.74",1.74,"10^9/L",0.8,3,"NORMAL","",13,"WEEK 26","TREATMENT","2013-06-05",181],
["CDISCPILOT01","LB","CDISC011",312,"MACROCY","Macrocytes","HEMATOLOGY","1","","","","1",1,"",null,null,"ABNORMAL","",13,"WEEK 26","TREATMENT","2013-06-05",181],
["CDISCPILOT01","LB","CDISC011",313,"MCH","Ery. Mean Corpuscular Hemoglobin","HEMATOLOGY","30","pg","26","34","1.8618",1.8618,"fmol",1.6,2.1,"NORMAL","",13,"WEEK 26","TREATMENT","2013-06-05",181],
["CDISCPILOT01","LB","CDISC011",314,"MCHC","Ery. Mean Corpuscular HGB Concentration","HEMATOLOGY","29","g/dL","31","38","17.9974",17.9974,"mmol/L",19,24,"LOW","",13,"WEEK 26","TREATMENT","2013-06-05",181],
["CDISCPILOT01","LB","CDISC011",315,"MCV","Ery. Mean Corpuscular Volume","HEMATOLOGY","101","fL","80","100","101",101,"fL",80,100,"HIGH","",13,"WEEK 26","TREATMENT","2013-06-05",181],
["CDISCPILOT01","LB","CDISC011",316,"MONO","Monocytes","HEMATOLOGY","0.34","10^9/L","0.12","0.92","0.34",0.34,"10^9/L",0.12,0.92,"NORMAL","",13,"WEEK 26","TREATMENT","2013-06-05",181],
["CDISCPILOT01","LB","CDISC011",319,"PLAT","Platelets","HEMATOLOGY","319","10^9/L","130","394","319",319,"10^9/L",130,394,"NORMAL","",13,"WEEK 26","TREATMENT","2013-06-05",181],
["CDISCPILOT01","LB","CDISC011",321,"RBC","Erythrocytes","HEMATOLOGY","4.80","10^12/L","4","5.8","4.8",4.8,"10^12/L",4,5.8,"NORMAL","",13,"WEEK 26","TREATMENT","2013-06-05",181],
["CDISCPILOT01","LB","CDISC011",323,"WBC","Leukocytes","HEMATOLOGY","6.51","10^9/L","3.8","10.7","6.51",6.51,"10^9/L",3.8,10.7,"NORMAL","",13,"WEEK 26","TREATMENT","2013-06-05",181],
["CDISCPILOT01","LB","CDISC012",5,"BASO","Basophils","HEMATOLOGY","0.03","10^9/L","0","0.2","0.03",0.03,"10^9/L",0,0.2,"NORMAL","Y",1,"SCREENING 1","SCREENING","2013-08-24T10:55",-10],
["CDISCPILOT01","LB","CDISC012",14,"EOS","Eosinophils","HEMATOLOGY","0.05","10^9/L","0","0.57","0.05",0.05,"10^9/L",0,0.57,"NORMAL","Y",1,"SCREENING 1","SCREENING","2013-08-24T10:55",-10],
["CDISCPILOT01","LB","CDISC012",17,"HCT","Hematocrit","HEMATOLOGY","37.0","%","37","51","0.37",0.37,"",0.37,0.51,"NORMAL","Y",1,"SCREENING 1","SCREENING","2013-08-24T10:55",-10],
["CDISCPILOT01","LB","CDISC012",18,"HGB","Hemoglobin","HEMATOLOGY","12.5","g/dL","12.5","17","7.7575",7.7575,"mmol/L",7.76,10.55,"NORMAL","Y",1,"SCREENING 1","SCREENING","2013-08-24T10:55",-10],
["CDISCPILOT01","LB","CDISC012",21,"LYM","Lymphocytes","HEMATOLOGY","1.98","10^9/L","0.8","3","1.98",1.98,"10^9/L",0.8,3,"NORMAL","Y",1,"SCREENING 1","SCREENING","2013-08-24T10:55",-10],
["CDISCPILOT01","LB","CDISC012",22,"MCH","Ery. Mean Corpuscular Hemoglobin","HEMATOLOGY","27","pg","26","34","1.67562",1.67562,"fmol",1.6,2.1,"NORMAL","Y",1,"SCREENING 1","SCREENING","2013-08-24T10:55",-10],
["CDISCPILOT01","LB","CDISC012",23,"MCHC","Ery. Mean Corpuscular HGB Concentration","HEMATOLOGY","34","g/dL","31","38","21.1004",21.1004,"mmol/L",19,24,"NORMAL","Y",1,"SCREENING 1","SCREENING","2013-08-24T10:55",-10],
["CDISCPILOT01","LB","CDISC012",24,"MCV","Ery. Mean Corpuscular Volume","HEMATOLOGY","81","fL","80","100","81",81,"fL",80,100,"NORMAL","Y",1,"SCREENING 1","SCREENING","2013-08-24T10:55",-10],
["CDISCPILOT01","LB","CDISC012",25,"MONO","Monocytes","HEMATOLOGY","0.36","10^9/L","0.12","0.92","0.36",0.36,"10^9/L",0.12,0.92,"NORMAL","Y",1,"SCREENING 1","SCREENING","2013-08-24T10:55",-10],
["CDISCPILOT01","LB","CDISC012",29,"PLAT","Platelets","HEMATOLOGY","221","10^9/L","130","394","221",221,"10^9/L",130,394,"NORMAL","Y",1,"SCREENING 1","SCREENING","2013-08-24T10:55",-10],
["CDISCPILOT01","LB","CDISC012",31,"RBC","Erythrocytes","HEMATOLOGY","4.60","10^12/L","4","5.8","4.6",4.6,"10^12/L",4,5.8,"NORMAL","Y",1,"SCREENING 1","SCREENING","2013-08-24T10:55",-10],
["CDISCPILOT01","LB","CDISC012",37,"WBC","Leukocytes","HEMATOLOGY","4.77","10^9/L","3.8","10.7","4.77",4.77,"10^9/L",3.8,10.7,"NORMAL","Y",1,"SCREENING 1","SCREENING","2013-08-24T10:55",-10],
["CDISCPILOT01","LB","CDISC012",42,"BASO","Basophils","HEMATOLOGY","0.04","10^9/L","0","0.2","0.04",0.04,"10^9/L",0,0.2,"NORMAL","",4,"WEEK 2","TREATMENT","2013-09-21T09:45",19],
["CDISCPILOT01","LB","CDISC012",51,"EOS","Eosinophils","HEMATOLOGY","0.07","10^9/L","0","0.57","0.07",0.07,"10^9/L",0,0.57,"NORMAL","",4,"WEEK 2","TREATMENT","2013-09-21T09:45",19],
["CDISCPILOT01","LB","CDISC012",54,"HCT","Hematocrit","HEMATOLOGY","38.0","%","37","51","0.38",0.38,"",0.37,0.51,"NORMAL","",4,"WEEK 2","TREATMENT","2013-09-21T09:45",19],
["CDISCPILOT01","LB","CDISC012",55,"HGB","Hemoglobin","HEMATOLOGY","13.0","g/dL","12.5","17","8.0678",8.0678,"mmol/L",7.76,10.55,"NORMAL","",4,"WEEK 2","TREATMENT","2013-09-21T09:45",19],
["CDISCPILOT01","LB","CDISC012",58,"LYM","Lymphocytes","HEMATOLOGY","2.51","10^9/L","0.8","3","2.51",2.51,"10^9/L",0.8,3,"NORMAL","",4,"WEEK 2","TREATMENT","2013-09-21T09:45",19],
["CDISCPILOT01","LB","CDISC012",59,"MCH","Ery. Mean Corpuscular Hemoglobin","HEMATOLOGY","28","pg","26","34","1.73768",1.73768,"fmol",1.6,2.1,"NORMAL","",4,"WEEK 2","TREATMENT","2013-09-21T09:45",19],
["CDISCPILOT01","LB","CDISC012",60,"MCHC","Ery. Mean Corpuscular HGB Concentration","HEMATOLOGY","34","g/dL","31","38","21.1004",21.1004,"mmol/L",19,24,"NORMAL","",4,"WEEK 2","TREATMENT","2013-09-21T09:45",19],
["CDISCPILOT01","LB","CDISC012",61,"MCV","Ery. Mean Corpuscular Volume","HEMATOLOGY","83","fL","80","100","83",83,"fL",80,100,"NORMAL","",4,"WEEK 2","TREATMENT","2013-09-21T09:45",19],
["CDISCPILOT01","LB","CDISC012",62,"MONO","Monocytes","HEMATOLOGY","0.27","10^9/L","0.12","0.92","0.27",0.27,"10^9/L",0.12,0.92,"NORMAL","",4,"WEEK 2","TREATMENT","2013-09-21T09:45",19],
["CDISCPILOT01","LB","CDISC012",66,"PLAT","Platelets","HEMATOLOGY","224","10^9/L","130","394","224",224,"10^9/L",130,394,"NORMAL","",4,"WEEK 2","TREATMENT","2013-09-21T09:45",19],
["CDISCPILOT01","LB","CDISC012",68,"RBC","Erythrocytes","HEMATOLOGY","4.70","10^12/L","4","5.8","4.7",4.7,"10^12/L",4,5.8,"NORMAL","",4,"WEEK 2","TREATMENT","2013-09-21T09:45",19],
["CDISCPILOT01","LB","CDISC012",72,"WBC","Leukocytes","HEMATOLOGY","5.24","10^9/L","3.8","10.7","5.24",5.24,"10^9/L",3.8,10.7,"NORMAL","",4,"WEEK 2","TREATMENT","2013-09-21T09:45",19],
["CDISCPILOT01","LB","CDISC012",77,"BASO","Basophils","HEMATOLOGY","0.04","10^9/L","0","0.2","0.04",0.04,"10^9/L",0,0.2,"NORMAL","",5,"WEEK 4","TREATMENT","2013-10-05T08:55",33],
["CDISCPILOT01","LB","CDISC012",85,"EOS","Eosinophils","HEMATOLOGY","0.07","10^9/L","0","0.57","0.07",0.07,"10^9/L",0,0.57,"NORMAL","",5,"WEEK 4","TREATMENT","2013-10-05T08:55",33],
["CDISCPILOT01","LB","CDISC012",88,"HCT","Hematocrit","HEMATOLOGY","40.0","%","37","51","0.4",0.4,"",0.37,0.51,"NORMAL","",5,"WEEK 4","TREATMENT","2013-10-05T08:55",33],
["CDISCPILOT01","LB","CDISC012",89,"HGB","Hemoglobin","HEMATOLOGY","13.4","g/dL","12.5","17","8.31604",8.31604,"mmol/L",7.76,10.55,"NORMAL","",5,"WEEK 4","TREATMENT","2013-10-05T08:55",33],
["CDISCPILOT01","LB","CDISC012",91,"LYM","Lymphocytes","HEMATOLOGY","2.44","10^9/L","0.8","3","2.44",2.44,"10^9/L",0.8,3,"NORMAL","",5,"WEEK 4","TREATMENT","2013-10-05T08:55",33],
["CDISCPILOT01","LB","CDISC012",92,"MCH","Ery. Mean Corpuscular Hemoglobin","HEMATOLOGY","28","pg","26","34","1.73768",1.73768,"fmol",1.6,2.1,"NORMAL","",5,"WEEK 4","TREATMENT","2013-10-05T08:55",33],
["CDISCPILOT01","LB","CDISC012",93,"MCHC","Ery. Mean Corpuscular HGB Concentration","HEMATOLOGY","34","g/dL","31","38","21.1004",21.1004,"mmol/L",19,24,"NORMAL","",5,"WEEK 4","TREATMENT","2013-10-05T08:55",33],
["CDISCPILOT01","LB","CDISC012",94,"MCV","Ery. Mean Corpuscular Volume","HEMATOLOGY","83","fL","80","100","83",83,"fL",80,100,"NORMAL","",5,"WEEK 4","TREATMENT","2013-10-05T08:55",33],
["CDISCPILOT01","LB","CDISC012",95,"MONO","Monocytes","HEMATOLOGY","0.42","10^9/L","0.12","0.92","0.42",0.42,"10^9/L",0.12,0.92,"NORMAL","",5,"WEEK 4","TREATMENT","2013-10-05T08:55",33],
["CDISCPILOT01","LB","CDISC012",98,"PLAT","Platelets","HEMATOLOGY","192","10^9/L","130","394","192",192,"10^9/L",130,394,"NORMAL","",5,"WEEK 4","TREATMENT","2013-10-05T08:55",33],
["CDISCPILOT01","LB","CDISC012",100,"RBC","Erythrocytes","HEMATOLOGY","4.80","10^12/L","4","5.8","4.8",4.8,"10^12/L",4,5.8,"NORMAL","",5,"WEEK 4","TREATMENT","2013-10-05T08:55",33],
["CDISCPILOT01","LB","CDISC012",102,"WBC","Leukocytes","HEMATOLOGY","5.31","10^9/L","3.8","10.7","5.31",5.31,"10^9/L",3.8,10.7,"NORMAL","",5,"WEEK 4","TREATMENT","2013-10-05T08:55",33],
["CDISCPILOT01","LB","CDISC012",107,"BASO","Basophils","HEMATOLOGY","0.03","10^9/L","0","0.2","0.03",0.03,"10^9/L",0,0.2,"NORMAL","",7,"WEEK 6","TREATMENT","2013-10-19T15:30",47],
["CDISCPILOT01","LB","CDISC012",115,"EOS","Eosinophils","HEMATOLOGY","0.05","10^9/L","0","0.57","0.05",0.05,"10^9/L",0,0.57,"NORMAL","",7,"WEEK 6","TREATMENT","2013-10-19T15:30",47],
["CDISCPILOT01","LB","CDISC012",118,"HCT","Hematocrit","HEMATOLOGY","37.0","%","37","51","0.37",0.37,"",0.37,0.51,"NORMAL","",7,"WEEK 6","TREATMENT","2013-10-19T15:30",47],
["CDISCPILOT01","LB","CDISC012",119,"HGB","Hemoglobin","HEMATOLOGY","12.7","g/dL","12.5","17","7.88162",7.88162,"mmol/L",7.76,10.55,"NORMAL","",7,"WEEK 6","TREATMENT","2013-10-19T15:30",47],
["CDISCPILOT01","LB","CDISC012",121,"LYM","Lymphocytes","HEMATOLOGY","2.65","10^9/L","0.8","3","2.65",2.65,"10^9/L",0.8,3,"NORMAL","",7,"WEEK 6","TREATMENT","2013-10-19T15:30",47],
["CDISCPILOT01","LB","CDISC012",122,"MCH","Ery. Mean Corpuscular Hemoglobin","HEMATOLOGY","29","pg","26","34","1.79974",1.79974,"fmol",1.6,2.1,"NORMAL","",7,"WEEK 6","TREATMENT","2013-10-19T15:30",47],
["CDISCPILOT01","LB","CDISC012",123,"MCHC","Ery. Mean Corpuscular HGB Concentration","HEMATOLOGY","35","g/dL","31","38","21.721",21.721,"mmol/L",19,24,"NORMAL","",7,"WEEK 6","TREATMENT","2013-10-19T15:30",47],
["CDISCPILOT01","LB","CDISC012",124,"MCV","Ery. Mean Corpuscular Volume","HEMATOLOGY","84","fL","80","100","84",84,"fL",80,100,"NORMAL","",7,"WEEK 6","TREATMENT","2013-10-19T15:30",47],
["CDISCPILOT01","LB","CDISC012",125,"MONO","Monocytes","HEMATOLOGY","0.32","10^9/L","0.12","0.92","0.32",0.32,"10^9/L",0.12,0.92,"NORMAL","",7,"WEEK 6","TREATMENT","2013-10-19T15:30",47],
["CDISCPILOT01","LB","CDISC012",128,"PLAT","Platelets","HEMATOLOGY","219","10^9/L","130","394","219",219,"10^9/L",130,394,"NORMAL","",7,"WEEK 6","TREATMENT","2013-10-19T15:30",47],
["CDISCPILOT01","LB","CDISC012",130,"RBC","Erythrocytes","HEMATOLOGY","4.40","10^12/L","4","5.8","4.4",4.4,"10^12/L",4,5.8,"NORMAL","",7,"WEEK 6","TREATMENT","2013-10-19T15:30",47],
["CDISCPILOT01","LB","CDISC012",132,"WBC","Leukocytes","HEMATOLOGY","5.41","10^9/L","3.8","10.7","5.41",5.41,"10^9/L",3.8,10.7,"NORMAL","",7,"WEEK 6","TREATMENT","2013-10-19T15:30",47],
["CDISCPILOT01","LB","CDISC012",137,"BASO","Basophils","HEMATOLOGY","0.04","10^9/L","0","0.2","0.04",0.04,"10^9/L",0,0.2,"NORMAL","",8,"WEEK 8","TREATMENT","2013-11-05T10:30",64],
["CDISCPILOT01","LB","CDISC012",145,"EOS","Eosinophils","HEMATOLOGY","0.05","10^9/L","0","0.57","0.05",0.05,"10^9/L",0,0.57,"NORMAL","",8,"WEEK 8","TREATMENT","2013-11-05T10:30",64],
["CDISCPILOT01","LB","CDISC012",148,"HCT","Hematocrit","HEMATOLOGY","42.0","%","37","51","0.42",0.42,"",0.37,0.51,"NORMAL","",8,"WEEK 8","TREATMENT","2013-11-05T10:30",64],
["CDISCPILOT01","LB","CDISC012",149,"HGB","Hemoglobin","HEMATOLOGY","13.9","g/dL","12.5","17","8.62634",8.62634,"mmol/L",7.76,10.55,"NORMAL","",8,"WEEK 8","TREATMENT","2013-11-05T10:30",64],
["CDISCPILOT01","LB","CDISC012",151,"LYM","Lymphocytes","HEMATOLOGY","2.60","10^9/L","0.8","3","2.6",2.6,"10^9/L",0.8,3,"NORMAL","",8,"WEEK 8","TREATMENT","2013-11-05T10:30",64],
["CDISCPILOT01","LB","CDISC012",152,"MCH","Ery. Mean Corpuscular Hemoglobin","HEMATOLOGY","28","pg","26","34","1.73768",1.73768,"fmol",1.6,2.1,"NORMAL","",8,"WEEK 8","TREATMENT","2013-11-05T10:30",64],
["CDISCPILOT01","LB","CDISC012",153,"MCHC","Ery. Mean Corpuscular HGB Concentration","HEMATOLOGY","33","g/dL","31","38","20.4798",20.4798,"mmol/L",19,24,"NORMAL","",8,"WEEK 8","TREATMENT","2013-11-05T10:30",64],
["CDISCPILOT01","LB","CDISC012",154,"MCV","Ery. Mean Corpuscular Volume","HEMATOLOGY","83","fL","80","100","83",83,"fL",80,100,"NORMAL","",8,"WEEK 8","TREATMENT","2013-11-05T10:30",64],
["CDISCPILOT01","LB","CDISC012",155,"MONO","Monocytes","HEMATOLOGY","0.45","10^9/L","0.12","0.92","0.45",0.45,"10^9/L",0.12,0.92,"NORMAL","",8,"WEEK 8","TREATMENT","2013-11-05T10:30",64],
["CDISCPILOT01","LB","CDISC012",158,"PLAT","Platelets","HEMATOLOGY","204","10^9/L","130","394","204",204,"10^9/L",130,394,"NORMAL","",8,"WEEK 8","TREATMENT","2013-11-05T10:30",64],
["CDISCPILOT01","LB","CDISC012",160,"RBC","Erythrocytes","HEMATOLOGY","5.10","10^12/L","4","5.8","5.1",5.1,"10^12/L",4,5.8,"NORMAL","",8,"WEEK 8","TREATMENT","2013-11-05T10:30",64],
["CDISCPILOT01","LB","CDISC012",162,"WBC","Leukocytes","HEMATOLOGY","5.74","10^9/L","3.8","10.7","5.74",5.74,"10^9/L",3.8,10.7,"NORMAL","",8,"WEEK 8","TREATMENT","2013-11-05T10:30",64],
["CDISCPILOT01","LB","CDISC012",167,"BASO","Basophils","HEMATOLOGY","0.03","10^9/L","0","0.2","0.03",0.03,"10^9/L",0,0.2,"NORMAL","",9,"WEEK 12","TREATMENT","2013-12-02T14:00",91],
["CDISCPILOT01","LB","CDISC012",176,"EOS","Eosinophils","HEMATOLOGY","0.04","10^9/L","0","0.57","0.04",0.04,"10^9/L",0,0.57,"NORMAL","",9,"WEEK 12","TREATMENT","2013-12-02T14:00",91],
["CDISCPILOT01","LB","CDISC012",179,"HCT","Hematocrit","HEMATOLOGY","38.0","%","37","51","0.38",0.38,"",0.37,0.51,"NORMAL","",9,"WEEK 12","TREATMENT","2013-12-02T14:00",91],
["CDISCPILOT01","LB","CDISC012",180,"HGB","Hemoglobin","HEMATOLOGY","12.6","g/dL","12.5","17","7.81956",7.81956,"mmol/L",7.76,10.55,"NORMAL","",9,"WEEK 12","TREATMENT","2013-12-02T14:00",91],
["CDISCPILOT01","LB","CDISC012",183,"LYM","Lymphocytes","HEMATOLOGY","2.18","10^9/L","0.8","3","2.18",2.18,"10^9/L",0.8,3,"NORMAL","",9,"WEEK 12","TREATMENT","2013-12-02T14:00",91],
["CDISCPILOT01","LB","CDISC012",184,"MCH","Ery. Mean Corpuscular Hemoglobin","HEMATOLOGY","27","pg","26","34","1.67562",1.67562,"fmol",1.6,2.1,"NORMAL","",9,"WEEK 12","TREATMENT","2013-12-02T14:00",91],
["CDISCPILOT01","LB","CDISC012",185,"MCHC","Ery. Mean Corpuscular HGB Concentration","HEMATOLOGY","34","g/dL","31","38","21.1004",21.1004,"mmol/L",19,24,"NORMAL","",9,"WEEK 12","TREATMENT","2013-12-02T14:00",91],
["CDISCPILOT01","LB","CDISC012",186,"MCV","Ery. Mean Corpuscular Volume","HEMATOLOGY","81","fL","80","100","81",81,"fL",80,100,"NORMAL","",9,"WEEK 12","TREATMENT","2013-12-02T14:00",91],
["CDISCPILOT01","LB","CDISC012",187,"MONO","Monocytes","HEMATOLOGY","0.34","10^9/L","0.12","0.92","0.34",0.34,"10^9/L",0.12,0.92,"NORMAL","",9,"WEEK 12","TREATMENT","2013-12-02T14:00",91],
["CDISCPILOT01","LB","CDISC012",191,"PLAT","Platelets","HEMATOLOGY","208","10^9/L","130","394","208",208,"10^9/L",130,394,"NORMAL","",9,"WEEK 12","TREATMENT","2013-12-02T14:00",91],
["CDISCPILOT01","LB","CDISC012",193,"RBC","Erythrocytes","HEMATOLOGY","4.70","10^12/L","4","5.8","4.7",4.7,"10^12/L",4,5.8,"NORMAL","",9,"WEEK 12","TREATMENT","2013-12-02T14:00",91],
["CDISCPILOT01","LB","CDISC012",197,"WBC","Leukocytes","HEMATOLOGY","4.75","10^9/L","3.8","10.7","4.75",4.75,"10^9/L",3.8,10.7,"NORMAL","",9,"WEEK 12","TREATMENT","2013-12-02T14:00",91],
["CDISCPILOT01","LB","CDISC012",202,"BASO","Basophils","HEMATOLOGY","0.05","10^9/L","0","0.2","0.05",0.05,"10^9/L",0,0.2,"NORMAL","",10,"WEEK 16","TREATMENT","2014-01-12T14:16",132],
["CDISCPILOT01","LB","CDISC012",210,"EOS","Eosinophils","HEMATOLOGY","0.06","10^9/L","0","0.57","0.06",0.06,"10^9/L",0,0.57,"NORMAL","",10,"WEEK 16","TREATMENT","2014-01-12T14:16",132],
["CDISCPILOT01","LB","CDISC012",213,"HCT","Hematocrit","HEMATOLOGY","40.0","%","37","51","0.4",0.4,"",0.37,0.51,"NORMAL","",10,"WEEK 16","TREATMENT","2014-01-12T14:16",132],
["CDISCPILOT01","LB","CDISC012",214,"HGB","Hemoglobin","HEMATOLOGY","12.5","g/dL","12.5","17","7.7575",7.7575,"mmol/L",7.76,10.55,"NORMAL","",10,"WEEK 16","TREATMENT","2014-01-12T14:16",132],
["CDISCPILOT01","LB","CDISC012",216,"LYM","Lymphocytes","HEMATOLOGY","2.54","10^9/L","0.8","3","2.54",2.54,"10^9/L",0.8,3,"NORMAL","",10,"WEEK 16","TREATMENT","2014-01-12T14:16",132],
["CDISCPILOT01","LB","CDISC012",217,"MCH","Ery. Mean Corpuscular Hemoglobin","HEMATOLOGY","27","pg","26","34","1.67562",1.67562,"fmol",1.6,2.1,"NORMAL","",10,"WEEK 16","TREATMENT","2014-01-12T14:16",132],
["CDISCPILOT01","LB","CDISC012",218,"MCHC","Ery. Mean Corpuscular HGB Concentration","HEMATOLOGY","31","g/dL","31","38","19.2386",19.2386,"mmol/L",19,24,"NORMAL","",10,"WEEK 16","TREATMENT","2014-01-12T14:16",132],
["CDISCPILOT01","LB","CDISC012",219,"MCV","Ery. Mean Corpuscular Volume","HEMATOLOGY","85","fL","80","100","85",85,"fL",80,100,"NORMAL","",10,"WEEK 16","TREATMENT","2014-01-12T14:16",132],
["CDISCPILOT01","LB","CDISC012",220,"MONO","Monocytes","HEMATOLOGY","0.34","10^9/L","0.12","0.92","0.34",0.34,"10^9/L",0.12,0.92,"NORMAL","",10,"WEEK 16","TREATMENT","2014-01-12T14:16",132],
["CDISCPILOT01","LB","CDISC012",223,"PLAT","Platelets","HEMATOLOGY","258","10^9/L","130","394","258",258,"10^9/L",130,394,"NORMAL","",10,"WEEK 16","TREATMENT","2014-01-12T14:16",132],
["CDISCPILOT01","LB","CDISC012",225,"RBC","Erythrocytes","HEMATOLOGY","4.70","10^12/L","4","5.8","4.7",4.7,"10^12/L",4,5.8,"NORMAL","",10,"WEEK 16","TREATMENT","2014-01-12T14:16",132],
["CDISCPILOT01","LB","CDISC012",227,"WBC","Leukocytes","HEMATOLOGY","5.49","10^9/L","3.8","10.7","5.49",5.49,"10^9/L",3.8,10.7,"NORMAL","",10,"WEEK 16","TREATMENT","2014-01-12T14:16",132],
["CDISCPILOT01","LB","CDISC012",232,"BASO","Basophils","HEMATOLOGY","0.04","10^9/L","0","0.2","0.04",0.04,"10^9/L",0,0.2,"NORMAL","",11,"WEEK 20","TREATMENT","2014-01-28T13:00",148],
["CDISCPILOT01","LB","CDISC012",241,"EOS","Eosinophils","HEMATOLOGY","0.05","10^9/L","0","0.57","0.05",0.05,"10^9/L",0,0.57,"NORMAL","",11,"WEEK 20","TREATMENT","2014-01-28T13:00",148],
["CDISCPILOT01","LB","CDISC012",244,"HCT","Hematocrit","HEMATOLOGY","40.0","%","37","51","0.4",0.4,"",0.37,0.51,"NORMAL","",11,"WEEK 20","TREATMENT","2014-01-28T13:00",148],
["CDISCPILOT01","LB","CDISC012",245,"HGB","Hemoglobin","HEMATOLOGY","13.4","g/dL","12.5","17","8.31604",8.31604,"mmol/L",7.76,10.55,"NORMAL","",11,"WEEK 20","TREATMENT","2014-01-28T13:00",148],
["CDISCPILOT01","LB","CDISC012",248,"LYM","Lymphocytes","HEMATOLOGY","2.11","10^9/L","0.8","3","2.11",2.11,"10^9/L",0.8,3,"NORMAL","",11,"WEEK 20","TREATMENT","2014-01-28T13:00",148],
["CDISCPILOT01","LB","CDISC012",249,"MCH","Ery. Mean Corpuscular Hemoglobin","HEMATOLOGY","27","pg","26","34","1.67562",1.67562,"fmol",1.6,2.1,"NORMAL","",11,"WEEK 20","TREATMENT","2014-01-28T13:00",148],
["CDISCPILOT01","LB","CDISC012",250,"MCHC","Ery. Mean Corpuscular HGB Concentration","HEMATOLOGY","34","g/dL","31","38","21.1004",21.1004,"mmol/L",19,24,"NORMAL","",11,"WEEK 20","TREATMENT","2014-01-28T13:00",148],
["CDISCPILOT01","LB","CDISC012",251,"MCV","Ery. Mean Corpuscular Volume","HEMATOLOGY","80","fL","80","100","80",80,"fL",80,100,"NORMAL","",11,"WEEK 20","TREATMENT","2014-01-28T13:00",148],
["CDISCPILOT01","LB","CDISC012",252,"MONO","Monocytes","HEMATOLOGY","0.35","10^9/L","0.12","0.92","0.35",0.35,"10^9/L",0.12,0.92,"NORMAL","",11,"WEEK 20","TREATMENT","2014-01-28T13:00",148],
["CDISCPILOT01","LB","CDISC012",256,"PLAT","Platelets","HEMATOLOGY","211","10^9/L","130","394","211",211,"10^9/L",130,394,"NORMAL","",11,"WEEK 20","TREATMENT","2014-01-28T13:00",148],
["CDISCPILOT01","LB","CDISC012",258,"RBC","Erythrocytes","HEMATOLOGY","5.00","10^12/L","4","5.8","5",5,"10^12/L",4,5.8,"NORMAL","",11,"WEEK 20","TREATMENT","2014-01-28T13:00",148],
["CDISCPILOT01","LB","CDISC012",262,"WBC","Leukocytes","HEMATOLOGY","5.07","10^9/L","3.8","10.7","5.07",5.07,"10^9/L",3.8,10.7,"NORMAL","",11,"WEEK 20","TREATMENT","2014-01-28T13:00",148],
["CDISCPILOT01","LB","CDISC013",5,"BASO","Basophils","HEMATOLOGY","0.03","10^9/L","0","0.2","0.03",0.03,"10^9/L",0,0.2,"NORMAL","Y",1,"SCREENING 1","SCREENING","2013-07-09T16:35",-13],
["CDISCPILOT01","LB","CDISC013",14,"EOS","Eosinophils","HEMATOLOGY","0.07","10^9/L","0","0.57","0.07",0.07,"10^9/L",0,0.57,"NORMAL","Y",1,"SCREENING 1","SCREENING","2013-07-09T16:35",-13],
["CDISCPILOT01","LB","CDISC013",17,"HCT","Hematocrit","HEMATOLOGY","48.0","%","34","48","0.48",0.48,"",0.34,0.48,"NORMAL","Y",1,"SCREENING 1","SCREENING","2013-07-09T16:35",-13],
["CDISCPILOT01","LB","CDISC013",18,"HGB","Hemoglobin","HEMATOLOGY","15.2","g/dL","11.5","15.8","9.43312",9.43312,"mmol/L",7.14,9.81,"NORMAL","Y",1,"SCREENING 1","SCREENING","2013-07-09T16:35",-13],
["CDISCPILOT01","LB","CDISC013",21,"LYM","Lymphocytes","HEMATOLOGY","1.96","10^9/L","0.8","3","1.96",1.96,"10^9/L",0.8,3,"NORMAL","Y",1,"SCREENING 1","SCREENING","2013-07-09T16:35",-13],
["CDISCPILOT01","LB","CDISC013",22,"MCH","Ery. Mean Corpuscular Hemoglobin","HEMATOLOGY","30","pg","26","34","1.8618",1.8618,"fmol",1.6,2.1,"NORMAL","Y",1,"SCREENING 1","SCREENING","2013-07-09T16:35",-13],
["CDISCPILOT01","LB","CDISC013",23,"MCHC","Ery. Mean Corpuscular HGB Concentration","HEMATOLOGY","32","g/dL","31","38","19.8592",19.8592,"mmol/L",19,24,"NORMAL","Y",1,"SCREENING 1","SCREENING","2013-07-09T16:35",-13],
["CDISCPILOT01","LB","CDISC013",24,"MCV","Ery. Mean Corpuscular Volume","HEMATOLOGY","95","fL","80","100","95",95,"fL",80,100,"NORMAL","Y",1,"SCREENING 1","SCREENING","2013-07-09T16:35",-13],
["CDISCPILOT01","LB","CDISC013",25,"MONO","Monocytes","HEMATOLOGY","0.64","10^9/L","0.12","0.92","0.64",0.64,"10^9/L",0.12,0.92,"NORMAL","Y",1,"SCREENING 1","SCREENING","2013-07-09T16:35",-13],
["CDISCPILOT01","LB","CDISC013",29,"PLAT","Platelets","HEMATOLOGY","225","10^9/L","130","394","225",225,"10^9/L",130,394,"NORMAL","Y",1,"SCREENING 1","SCREENING","2013-07-09T16:35",-13],
["CDISCPILOT01","LB","CDISC013",31,"RBC","Erythrocytes","HEMATOLOGY","5.10","10^12/L","3.9","5.5","5.1",5.1,"10^12/L",3.9,5.5,"NORMAL","Y",1,"SCREENING 1","SCREENING","2013-07-09T16:35",-13],
["CDISCPILOT01","LB","CDISC013",37,"WBC","Leukocytes","HEMATOLOGY","6.79","10^9/L","3.8","10.7","6.79",6.79,"10^9/L",3.8,10.7,"NORMAL","Y",1,"SCREENING 1","SCREENING","2013-07-09T16:35",-13],
["CDISCPILOT01","LB","CDISC014",5,"BASO","Basophils","HEMATOLOGY","0.03","10^9/L","0","0.2","0.03",0.03,"10^9/L",0,0.2,"NORMAL","Y",1,"SCREENING 1","SCREENING","2013-03-20T14:12",-14],
["CDISCPILOT01","LB","CDISC014",14,"EOS","Eosinophils","HEMATOLOGY","0.05","10^9/L","0","0.57","0.05",0.05,"10^9/L",0,0.57,"NORMAL","Y",1,"SCREENING 1","SCREENING","2013-03-20T14:12",-14],
["CDISCPILOT01","LB","CDISC014",17,"HCT","Hematocrit","HEMATOLOGY","39.0","%","34","48","0.39",0.39,"",0.34,0.48,"NORMAL","Y",1,"SCREENING 1","SCREENING","2013-03-20T14:12",-14],
["CDISCPILOT01","LB","CDISC014",18,"HGB","Hemoglobin","HEMATOLOGY","13.1","g/dL","11.5","15.8","8.12986",8.12986,"mmol/L",7.14,9.81,"NORMAL","Y",1,"SCREENING 1","SCREENING","2013-03-20T14:12",-14],
["CDISCPILOT01","LB","CDISC014",21,"LYM","Lymphocytes","HEMATOLOGY","1.05","10^9/L","0.8","3","1.05",1.05,"10^9/L",0.8,3,"NORMAL","Y",1,"SCREENING 1","SCREENING","2013-03-20T14:12",-14],
["CDISCPILOT01","LB","CDISC014",22,"MCH","Ery. Mean Corpuscular Hemoglobin","HEMATOLOGY","29","pg","26","34","1.79974",1.79974,"fmol",1.6,2.1,"NORMAL","Y",1,"SCREENING 1","SCREENING","2013-03-20T14:12",-14],
["CDISCPILOT01","LB","CDISC014",23,"MCHC","Ery. Mean Corpuscular HGB Concentration","HEMATOLOGY","33","g/dL","31","38","20.4798",20.4798,"mmol/L",19,24,"NORMAL","Y",1,"SCREENING 1","SCREENING","2013-03-20T14:12",-14],
["CDISCPILOT01","LB","CDISC014",24,"MCV","Ery. Mean Corpuscular Volume","HEMATOLOGY","86","fL","80","100","86",86,"fL",80,100,"NORMAL","Y",1,"SCREENING 1","SCREENING","2013-03-20T14:12",-14],
["CDISCPILOT01","LB","CDISC014",25,"MONO","Monocytes","HEMATOLOGY","0.37","10^9/L","0.12","0.92","0.37",0.37,"10^9/L",0.12,0.92,"NORMAL","Y",1,"SCREENING 1","SCREENING","2013-03-20T14:12",-14],
["CDISCPILOT01","LB","CDISC014",29,"PLAT","Platelets","HEMATOLOGY","239","10^9/L","130","394","239",239,"10^9/L",130,394,"NORMAL","Y",1,"SCREENING 1","SCREENING","2013-03-20T14:12",-14],
["CDISCPILOT01","LB","CDISC014",31,"RBC","Erythrocytes","HEMATOLOGY","4.60","10^12/L","3.9","5.5","4.6",4.6,"10^12/L",3.9,5.5,"NORMAL","Y",1,"SCREENING 1","SCREENING","2013-03-20T14:12",-14],
["CDISCPILOT01","LB","CDISC014",37,"WBC","Leukocytes","HEMATOLOGY","5.14","10^9/L","3.8","10.7","5.14",5.14,"10^9/L",3.8,10.7,"NORMAL","Y",1,"SCREENING 1","SCREENING","2013-03-20T14:12",-14],
["CDISCPILOT01","LB","CDISC014",60,"BASO","Basophils","HEMATOLOGY","0.02","10^9/L","0","0.2","0.02",0.02,"10^9/L",0,0.2,"NORMAL","",4,"WEEK 2","TREATMENT","2013-04-17T14:42",15],
["CDISCPILOT01","LB","CDISC014",69,"EOS","Eosinophils","HEMATOLOGY","0.08","10^9/L","0","0.57","0.08",0.08,"10^9/L",0,0.57,"NORMAL","",4,"WEEK 2","TREATMENT","2013-04-17T14:42",15],
["CDISCPILOT01","LB","CDISC014",72,"HCT","Hematocrit","HEMATOLOGY","40.0","%","34","48","0.4",0.4,"",0.34,0.48,"NORMAL","",4,"WEEK 2","TREATMENT","2013-04-17T14:42",15],
["CDISCPILOT01","LB","CDISC014",73,"HGB","Hemoglobin","HEMATOLOGY","12.8","g/dL","11.5","15.8","7.94368",7.94368,"mmol/L",7.14,9.81,"NORMAL","",4,"WEEK 2","TREATMENT","2013-04-17T14:42",15],
["CDISCPILOT01","LB","CDISC014",76,"LYM","Lymphocytes","HEMATOLOGY","1.61","10^9/L","0.8","3","1.61",1.61,"10^9/L",0.8,3,"NORMAL","",4,"WEEK 2","TREATMENT","2013-04-17T14:42",15],
["CDISCPILOT01","LB","CDISC014",77,"MCH","Ery. Mean Corpuscular Hemoglobin","HEMATOLOGY","27","pg","26","34","1.67562",1.67562,"fmol",1.6,2.1,"NORMAL","",4,"WEEK 2","TREATMENT","2013-04-17T14:42",15],
["CDISCPILOT01","LB","CDISC014",78,"MCHC","Ery. Mean Corpuscular HGB Concentration","HEMATOLOGY","32","g/dL","31","38","19.8592",19.8592,"mmol/L",19,24,"NORMAL","",4,"WEEK 2","TREATMENT","2013-04-17T14:42",15],
["CDISCPILOT01","LB","CDISC014",79,"MCV","Ery. Mean Corpuscular Volume","HEMATOLOGY","86","fL","80","100","86",86,"fL",80,100,"NORMAL","",4,"WEEK 2","TREATMENT","2013-04-17T14:42",15],
["CDISCPILOT01","LB","CDISC014",80,"MONO","Monocytes","HEMATOLOGY","0.47","10^9/L","0.12","0.92","0.47",0.47,"10^9/L",0.12,0.92,"NORMAL","",4,"WEEK 2","TREATMENT","2013-04-17T14:42",15],
["CDISCPILOT01","LB","CDISC014",84,"PLAT","Platelets","HEMATOLOGY","241","10^9/L","130","394","241",241,"10^9/L",130,394,"NORMAL","",4,"WEEK 2","TREATMENT","2013-04-17T14:42",15],
["CDISCPILOT01","LB","CDISC014",86,"RBC","Erythrocytes","HEMATOLOGY","4.70","10^12/L","3.9","5.5","4.7",4.7,"10^12/L",3.9,5.5,"NORMAL","",4,"WEEK 2","TREATMENT","2013-04-17T14:42",15],
["CDISCPILOT01","LB","CDISC014",90,"WBC","Leukocytes","HEMATOLOGY","5.89","10^9/L","3.8","10.7","5.89",5.89,"10^9/L",3.8,10.7,"NORMAL","",4,"WEEK 2","TREATMENT","2013-04-17T14:42",15],
["CDISCPILOT01","LB","CDISC014",95,"BASO","Basophils","HEMATOLOGY","0.03","10^9/L","0","0.2","0.03",0.03,"10^9/L",0,0.2,"NORMAL","",5,"WEEK 4","TREATMENT","2013-05-02T09:40",30],
["CDISCPILOT01","LB","CDISC014",104,"EOS","Eosinophils","HEMATOLOGY","0.26","10^9/L","0","0.57","0.26",0.26,"10^9/L",0,0.57,"NORMAL","",5,"WEEK 4","TREATMENT","2013-05-02T09:40",30],
["CDISCPILOT01","LB","CDISC014",107,"HCT","Hematocrit","HEMATOLOGY","37.0","%","34","48","0.37",0.37,"",0.34,0.48,"NORMAL","",5,"WEEK 4","TREATMENT","2013-05-02T09:40",30],
["CDISCPILOT01","LB","CDISC014",108,"HGB","Hemoglobin","HEMATOLOGY","12.1","g/dL","11.5","15.8","7.50926",7.50926,"mmol/L",7.14,9.81,"NORMAL","",5,"WEEK 4","TREATMENT","2013-05-02T09:40",30],
["CDISCPILOT01","LB","CDISC014",111,"LYM","Lymphocytes","HEMATOLOGY","1.07","10^9/L","0.8","3","1.07",1.07,"10^9/L",0.8,3,"NORMAL","",5,"WEEK 4","TREATMENT","2013-05-02T09:40",30],
["CDISCPILOT01","LB","CDISC014",112,"MCH","Ery. Mean Corpuscular Hemoglobin","HEMATOLOGY","29","pg","26","34","1.79974",1.79974,"fmol",1.6,2.1,"NORMAL","",5,"WEEK 4","TREATMENT","2013-05-02T09:40",30],
["CDISCPILOT01","LB","CDISC014",113,"MCHC","Ery. Mean Corpuscular HGB Concentration","HEMATOLOGY","33","g/dL","31","38","20.4798",20.4798,"mmol/L",19,24,"NORMAL","",5,"WEEK 4","TREATMENT","2013-05-02T09:40",30],
["CDISCPILOT01","LB","CDISC014",114,"MCV","Ery. Mean Corpuscular Volume","HEMATOLOGY","87","fL","80","100","87",87,"fL",80,100,"NORMAL","",5,"WEEK 4","TREATMENT","2013-05-02T09:40",30],
["CDISCPILOT01","LB","CDISC014",115,"MONO","Monocytes","HEMATOLOGY","0.50","10^9/L","0.12","0.92","0.5",0.5,"10^9/L",0.12,0.92,"NORMAL","",5,"WEEK 4","TREATMENT","2013-05-02T09:40",30],
["CDISCPILOT01","LB","CDISC014",119,"PLAT","Platelets","HEMATOLOGY","184","10^9/L","130","394","184",184,"10^9/L",130,394,"NORMAL","",5,"WEEK 4","TREATMENT","2013-05-02T09:40",30],
["CDISCPILOT01","LB","CDISC014",121,"RBC","Erythrocytes","HEMATOLOGY","4.20","10^12/L","3.9","5.5","4.2",4.2,"10^12/L",3.9,5.5,"NORMAL","",5,"WEEK 4","TREATMENT","2013-05-02T09:40",30],
["CDISCPILOT01","LB","CDISC014",125,"WBC","Leukocytes","HEMATOLOGY","4.63","10^9/L","3.8","10.7","4.63",4.63,"10^9/L",3.8,10.7,"NORMAL","",5,"WEEK 4","TREATMENT","2013-05-02T09:40",30],
["CDISCPILOT01","LB","CDISC016",5,"BASO","Basophils","HEMATOLOGY","0.05","10^9/L","0","0.2","0.05",0.05,"10^9/L",0,0.2,"NORMAL","Y",1,"SCREENING 1","SCREENING","2013-03-24T12:18",-10],
["CDISCPILOT01","LB","CDISC016",14,"EOS","Eosinophils","HEMATOLOGY","0.02","10^9/L","0","0.57","0.02",0.02,"10^9/L",0,0.57,"NORMAL","Y",1,"SCREENING 1","SCREENING","2013-03-24T12:18",-10],
