{
  "clinicalData":{"studyOID":"cdisc.com/CDISCPILOT01","metaDataVersionOID":"MDV.MSGv2.0.SDTMIG.3.3.SDTM.1.7","itemGroupData": {"IG.LB":{"records":300,"name":"LB","label":"Laboratory Test Results","items":[{"OID": "IT.LB.STUDYID", "name":"STUDYID", "label":"Study Identifier", "type":"string", "length":12},{"OID": "IT.LB.DOMAIN", "name":"DOMAIN", "label":"Domain Abbreviation", "type":"string", "length":2},{"OID": "IT.LB.USUBJID", "name":"USUBJID", "label":"Unique Subject Identifier", "type":"string", "length":8},{"OID": "IT.LB.LBSEQ", "name":"LBSEQ", "label":"Sequence Number", "type":"integer"},{"OID": "IT.LB.LBTESTCD", "name":"LBTESTCD", "label":"Lab Test or Examination Short Name", "type":"string", "length":7},{"OID": "IT.LB.LBTEST", "name":"LBTEST", "label":"Lab Test or Examination Name", "type":"string", "length":39},{"OID": "IT.LB.LBCAT", "name":"LBCAT", "label":"Category for Lab Test", "type":"string", "length":10},{"OID": "IT.LB.LBORRES", "name":"LBORRES", "label":"Result or Finding in Original Units", "type":"string", "length":6},{"OID": "IT.LB.LBORRESU", "name":"LBORRESU", "label":"Original Units", "type":"string", "length":7},{"OID": "IT.LB.LBORNRLO", "name":"LBORNRLO", "label":"Reference Range Lower Limit in Orig Unit", "type":"string", "length":200},{"OID": "IT.LB.LBORNRHI", "name":"LBORNRHI", "label":"Reference Range Upper Limit in Orig Unit", "type":"string", "length":200},{"OID": "IT.LB.LBSTRESC", "name":"LBSTRESC", "label":"Character Result/Finding in Std Format", "type":"string", "length":8},{"OID": "IT.LB.LBSTRESN", "name":"LBSTRESN", "label":"Numeric Result/Finding in Standard Units", "type":"float", "length":8, "fractionDigits":5},{"OID": "IT.LB.LBSTRESU", "name":"LBSTRESU", "label":"Standard Units", "type":"string", "length":7},{"OID": "IT.LB.LBSTNRLO", "name":"LBSTNRLO", "label":"Reference Range Lower Limit-Std Units", "type":"float", "length":5, "fractionDigits":3},{"OID": "IT.LB.LBSTNRHI", "name":"LBSTNRHI", "label":"Reference Range Upper Limit-Std Units", "type":"float", "length":5, "fractionDigits":2},{"OID": "IT.LB.LBNRIND", "name":"LBNRIND", "label":"Reference Range Indicator", "type":"string", "length":8},{"OID": "IT.LB.LBLOBXFL", "name":"LBLOBXFL", "label":"Last Observation Before Exposure Flag", "type":"string", "length":1},{"OID": "IT.LB.VISITNUM", "name":"VISITNUM", "label":"Visit Number", "type":"float", "length":8, "fractionDigits":2},{"OID": "IT.LB.VISIT", "name":"VISIT", "label":"Visit Name", "type":"string", "length":200},{"OID": "IT.LB.EPOCH", "name":"EPOCH", "label":"Epoch", "type":"string", "length":9},{"OID": "IT.LB.LBDTC", "name":"LBDTC", "label":"Date/Time of Specimen Collection", "type":"string"},{"OID": "IT.LB.LBDY", "name":"LBDY", "label":"Study Day of Specimen Collection", "type":"integer"}],"itemData": [
["CDISCPILOT01","LB","CDISC001",12,"COLOR","Color","URINALYSIS","NORMAL",null,null,null,"NORMAL",null,null,null,null,"NORMAL","Y",1,"SCREENING 1","SCREENING","2012-11-23T11:20",-7],
["CDISCPILOT01","LB","CDISC001",20,"KETONES","Ketones","URINALYSIS","0",null,null,null,"0",0,null,null,null,"NORMAL","Y",1,"SCREENING 1","SCREENING","2012-11-23T11:20",-7],
["CDISCPILOT01","LB","CDISC001",27,"PH","pH","URINALYSIS","5",null,"5","8","5",5,null,5,8,"NORMAL","Y",1,"SCREENING 1","SCREENING","2012-11-23T11:20",-7],
["CDISCPILOT01","LB","CDISC001",32,"SPGRAV","Specific Gravity","URINALYSIS","1.017",null,"1.006","1.03","1.017",1.017,null,1.006,1.03,"NORMAL","Y",1,"SCREENING 1","SCREENING","2012-11-23T11:20",-7],
["CDISCPILOT01","LB","CDISC001",33,"TSH","Thyrotropin","OTHER","2.63","mIU/L",".32","5","2.63",2.63,"mU/L",0.32,5,"NORMAL","Y",1,"SCREENING 1","SCREENING","2012-11-23T11:20",-7],
["CDISCPILOT01","LB","CDISC001",35,"UROBIL","Urobilinogen","URINALYSIS","0",null,null,null,"0",0,null,null,null,"NORMAL","Y",1,"SCREENING 1","SCREENING","2012-11-23T11:20",-7],
["CDISCPILOT01","LB","CDISC001",36,"VITB12","Vitamin B12","OTHER","641","ng/L","200","900","472.9298",472.9298,"pmol/L",148,664,"NORMAL","Y",1,"SCREENING 1","SCREENING","2012-11-23T11:20",-7],
["CDISCPILOT01","LB","CDISC001",49,"COLOR","Color","URINALYSIS","NORMAL",null,null,null,"NORMAL",null,null,null,null,"NORMAL",null,4,"WEEK 2","TREATMENT","2012-12-13T14:05",14],
["CDISCPILOT01","LB","CDISC001",57,"KETONES","Ketones","URINALYSIS","0",null,null,null,"0",0,null,null,null,"NORMAL",null,4,"WEEK 2","TREATMENT","2012-12-13T14:05",14],
["CDISCPILOT01","LB","CDISC001",64,"PH","pH","URINALYSIS","5",null,"5","8","5",5,null,5,8,"NORMAL",null,4,"WEEK 2","TREATMENT","2012-12-13T14:05",14],
["CDISCPILOT01","LB","CDISC001",69,"SPGRAV","Specific Gravity","URINALYSIS","1.023",null,"1.006","1.03","1.023",1.023,null,1.006,1.03,"NORMAL",null,4,"WEEK 2","TREATMENT","2012-12-13T14:05",14],
["CDISCPILOT01","LB","CDISC001",71,"UROBIL","Urobilinogen","URINALYSIS","0",null,null,null,"0",0,null,null,null,"NORMAL",null,4,"WEEK 2","TREATMENT","2012-12-13T14:05",14],
["CDISCPILOT01","LB","CDISC001",159,"COLOR","Color","URINALYSIS","NORMAL",null,null,null,"NORMAL",null,null,null,null,"NORMAL",null,8,"WEEK 8","TREATMENT","2013-01-23T12:13",55],
["CDISCPILOT01","LB","CDISC001",167,"KETONES","Ketones","URINALYSIS","0",null,null,null,"0",0,null,null,null,"NORMAL",null,8,"WEEK 8","TREATMENT","2013-01-23T12:13",55],
["CDISCPILOT01","LB","CDISC001",174,"PH","pH","URINALYSIS","5",null,"5","8","5",5,null,5,8,"NORMAL",null,8,"WEEK 8","TREATMENT","2013-01-23T12:13",55],
["CDISCPILOT01","LB","CDISC001",179,"SPGRAV","Specific Gravity","URINALYSIS","1.023",null,"1.006","1.03","1.023",1.023,null,1.006,1.03,"NORMAL",null,8,"WEEK 8","TREATMENT","2013-01-23T12:13",55],
["CDISCPILOT01","LB","CDISC001",181,"UROBIL","Urobilinogen","URINALYSIS","0",null,null,null,"0",0,null,null,null,"NORMAL",null,8,"WEEK 8","TREATMENT","2013-01-23T12:13",55],
["CDISCPILOT01","LB","CDISC002",12,"COLOR","Color","URINALYSIS","NORMAL",null,null,null,"NORMAL",null,null,null,null,"NORMAL","Y",1,"SCREENING 1","SCREENING","2012-10-30T14:26",-16],
["CDISCPILOT01","LB","CDISC002",20,"KETONES","Ketones","URINALYSIS","1",null,null,null,"1",1,null,null,null,"ABNORMAL","Y",1,"SCREENING 1","SCREENING","2012-10-30T14:26",-16],
["CDISCPILOT01","LB","CDISC002",27,"PH","pH","URINALYSIS","5",null,"5","8","5",5,null,5,8,"NORMAL","Y",1,"SCREENING 1","SCREENING","2012-10-30T14:26",-16],
["CDISCPILOT01","LB","CDISC002",32,"SPGRAV","Specific Gravity","URINALYSIS","1.021",null,"1.006","1.03","1.021",1.021,null,1.006,1.03,"NORMAL","Y",1,"SCREENING 1","SCREENING","2012-10-30T14:26",-16],
["CDISCPILOT01","LB","CDISC002",33,"TSH","Thyrotropin","OTHER","1.75","mIU/L",".32","5","1.75",1.75,"mU/L",0.32,5,"NORMAL","Y",1,"SCREENING 1","SCREENING","2012-10-30T14:26",-16],
["CDISCPILOT01","LB","CDISC002",35,"UROBIL","Urobilinogen","URINALYSIS","0",null,null,null,"0",0,null,null,null,"NORMAL","Y",1,"SCREENING 1","SCREENING","2012-10-30T14:26",-16],
["CDISCPILOT01","LB","CDISC002",36,"VITB12","Vitamin B12","OTHER","427","ng/L","200","900","315.0406",315.0406,"pmol/L",148,664,"NORMAL","Y",1,"SCREENING 1","SCREENING","2012-10-30T14:26",-16],
["CDISCPILOT01","LB","CDISC002",49,"COLOR","Color","URINALYSIS","NORMAL",null,null,null,"NORMAL",null,null,null,null,"NORMAL",null,4,"WEEK 2","TREATMENT","2012-11-28T10:00",14],
["CDISCPILOT01","LB","CDISC002",57,"KETONES","Ketones","URINALYSIS","0",null,null,null,"0",0,null,null,null,"NORMAL",null,4,"WEEK 2","TREATMENT","2012-11-28T10:00",14],
["CDISCPILOT01","LB","CDISC002",64,"PH","pH","URINALYSIS","5",null,"5","8","5",5,null,5,8,"NORMAL",null,4,"WEEK 2","TREATMENT","2012-11-28T10:00",14],
["CDISCPILOT01","LB","CDISC002",69,"SPGRAV","Specific Gravity","URINALYSIS","1.016",null,"1.006","1.03","1.016",1.016,null,1.006,1.03,"NORMAL",null,4,"WEEK 2","TREATMENT","2012-11-28T10:00",14],
["CDISCPILOT01","LB","CDISC002",71,"UROBIL","Urobilinogen","URINALYSIS","0",null,null,null,"0",0,null,null,null,"NORMAL",null,4,"WEEK 2","TREATMENT","2012-11-28T10:00",14],
["CDISCPILOT01","LB","CDISC003",12,"COLOR","Color","URINALYSIS","NORMAL",null,null,null,"NORMAL",null,null,null,null,"NORMAL","Y",1,"SCREENING 1","SCREENING","2013-08-20T12:27",-9],
["CDISCPILOT01","LB","CDISC003",20,"KETONES","Ketones","URINALYSIS","0",null,null,null,"0",0,null,null,null,"NORMAL","Y",1,"SCREENING 1","SCREENING","2013-08-20T12:27",-9],
["CDISCPILOT01","LB","CDISC003",27,"PH","pH","URINALYSIS","5",null,"5","8","5",5,null,5,8,"NORMAL","Y",1,"SCREENING 1","SCREENING","2013-08-20T12:27",-9],
["CDISCPILOT01","LB","CDISC003",32,"SPGRAV","Specific Gravity","URINALYSIS","1.021",null,"1.006","1.03","1.021",1.021,null,1.006,1.03,"NORMAL","Y",1,"SCREENING 1","SCREENING","2013-08-20T12:27",-9],
["CDISCPILOT01","LB","CDISC003",33,"TSH","Thyrotropin","OTHER","1.89","mIU/L",".32","5","1.89",1.89,"mU/L",0.32,5,"NORMAL","Y",1,"SCREENING 1","SCREENING","2013-08-20T12:27",-9],
["CDISCPILOT01","LB","CDISC003",35,"UROBIL","Urobilinogen","URINALYSIS","0",null,null,null,"0",0,null,null,null,"NORMAL","Y",1,"SCREENING 1","SCREENING","2013-08-20T12:27",-9],
["CDISCPILOT01","LB","CDISC003",36,"VITB12","Vitamin B12","OTHER","714","ng/L","200","900","526.7892",526.7892,"pmol/L",148,664,"NORMAL","Y",1,"SCREENING 1","SCREENING","2013-08-20T12:27",-9],
["CDISCPILOT01","LB","CDISC003",49,"COLOR","Color","URINALYSIS","NORMAL",null,null,null,"NORMAL",null,null,null,null,"NORMAL",null,4,"WEEK 2","TREATMENT","2013-09-15T12:44",18],
["CDISCPILOT01","LB","CDISC003",57,"KETONES","Ketones","URINALYSIS","0",null,null,null,"0",0,null,null,null,"NORMAL",null,4,"WEEK 2","TREATMENT","2013-09-15T12:44",18],
["CDISCPILOT01","LB","CDISC003",64,"PH","pH","URINALYSIS","5",null,"5","8","5",5,null,5,8,"NORMAL",null,4,"WEEK 2","TREATMENT","2013-09-15T12:44",18],
["CDISCPILOT01","LB","CDISC003",69,"SPGRAV","Specific Gravity","URINALYSIS","1.021",null,"1.006","1.03","1.021",1.021,null,1.006,1.03,"NORMAL",null,4,"WEEK 2","TREATMENT","2013-09-15T12:44",18],
["CDISCPILOT01","LB","CDISC003",71,"UROBIL","Urobilinogen","URINALYSIS","0",null,null,null,"0",0,null,null,null,"NORMAL",null,4,"WEEK 2","TREATMENT","2013-09-15T12:44",18],
["CDISCPILOT01","LB","CDISC003",174,"COLOR","Color","URINALYSIS","NORMAL",null,null,null,"NORMAL",null,null,null,null,"NORMAL",null,9,"WEEK 12","TREATMENT","2013-11-05T13:54",69],
["CDISCPILOT01","LB","CDISC003",182,"KETONES","Ketones","URINALYSIS","0",null,null,null,"0",0,null,null,null,"NORMAL",null,9,"WEEK 12","TREATMENT","2013-11-05T13:54",69],
["CDISCPILOT01","LB","CDISC003",189,"PH","pH","URINALYSIS","5",null,"5","8","5",5,null,5,8,"NORMAL",null,9,"WEEK 12","TREATMENT","2013-11-05T13:54",69],
["CDISCPILOT01","LB","CDISC003",194,"SPGRAV","Specific Gravity","URINALYSIS","1.013",null,"1.006","1.03","1.013",1.013,null,1.006,1.03,"NORMAL",null,9,"WEEK 12","TREATMENT","2013-11-05T13:54",69],
["CDISCPILOT01","LB","CDISC003",196,"UROBIL","Urobilinogen","URINALYSIS","0",null,null,null,"0",0,null,null,null,"NORMAL",null,9,"WEEK 12","TREATMENT","2013-11-05T13:54",69],
["CDISCPILOT01","LB","CDISC004",12,"COLOR","Color","URINALYSIS","NORMAL",null,null,null,"NORMAL",null,null,null,null,"NORMAL","Y",1,"SCREENING 1","SCREENING","2013-10-01T12:50",-7],
["CDISCPILOT01","LB","CDISC004",20,"KETONES","Ketones","URINALYSIS","0",null,null,null,"0",0,null,null,null,"NORMAL","Y",1,"SCREENING 1","SCREENING","2013-10-01T12:50",-7],
["CDISCPILOT01","LB","CDISC004",27,"PH","pH","URINALYSIS","5",null,"5","8","5",5,null,5,8,"NORMAL","Y",1,"SCREENING 1","SCREENING","2013-10-01T12:50",-7],
["CDISCPILOT01","LB","CDISC004",32,"SPGRAV","Specific Gravity","URINALYSIS","1.013",null,"1.006","1.03","1.013",1.013,null,1.006,1.03,"NORMAL","Y",1,"SCREENING 1","SCREENING","2013-10-01T12:50",-7],
["CDISCPILOT01","LB","CDISC004",33,"TSH","Thyrotropin","OTHER",".94","mIU/L",".32","5",".94",0.94,"mU/L",0.32,5,"NORMAL","Y",1,"SCREENING 1","SCREENING","2013-10-01T12:50",-7],
["CDISCPILOT01","LB","CDISC004",35,"UROBIL","Urobilinogen","URINALYSIS","0",null,null,null,"0",0,null,null,null,"NORMAL","Y",1,"SCREENING 1","SCREENING","2013-10-01T12:50",-7],
["CDISCPILOT01","LB","CDISC004",36,"VITB12","Vitamin B12","OTHER","302","ng/L","200","900","222.8156",222.8156,"pmol/L",148,664,"NORMAL","Y",1,"SCREENING 1","SCREENING","2013-10-01T12:50",-7],
["CDISCPILOT01","LB","CDISC004",49,"COLOR","Color","URINALYSIS","NORMAL",null,null,null,"NORMAL",null,null,null,null,"NORMAL",null,4,"WEEK 2","TREATMENT","2013-10-24T10:41",17],
["CDISCPILOT01","LB","CDISC004",57,"KETONES","Ketones","URINALYSIS","0",null,null,null,"0",0,null,null,null,"NORMAL",null,4,"WEEK 2","TREATMENT","2013-10-24T10:41",17],
["CDISCPILOT01","LB","CDISC004",64,"PH","pH","URINALYSIS","5",null,"5","8","5",5,null,5,8,"NORMAL",null,4,"WEEK 2","TREATMENT","2013-10-24T10:41",17],
["CDISCPILOT01","LB","CDISC004",69,"SPGRAV","Specific Gravity","URINALYSIS","1.015",null,"1.006","1.03","1.015",1.015,null,1.006,1.03,"NORMAL",null,4,"WEEK 2","TREATMENT","2013-10-24T10:41",17],
["CDISCPILOT01","LB","CDISC004",71,"UROBIL","Urobilinogen","URINALYSIS","0",null,null,null,"0",0,null,null,null,"NORMAL",null,4,"WEEK 2","TREATMENT","2013-10-24T10:41",17],
["CDISCPILOT01","LB","CDISC004",174,"COLOR","Color","URINALYSIS","NORMAL",null,null,null,"NORMAL",null,null,null,null,"NORMAL",null,9,"WEEK 12","TREATMENT","2013-12-31T15:07",85],
["CDISCPILOT01","LB","CDISC004",182,"KETONES","Ketones","URINALYSIS","0",null,null,null,"0",0,null,null,null,"NORMAL",null,9,"WEEK 12","TREATMENT","2013-12-31T15:07",85],
["CDISCPILOT01","LB","CDISC004",189,"PH","pH","URINALYSIS","5",null,"5","8","5",5,null,5,8,"NORMAL",null,9,"WEEK 12","TREATMENT","2013-12-31T15:07",85],
["CDISCPILOT01","LB","CDISC004",194,"SPGRAV","Specific Gravity","URINALYSIS","1.007",null,"1.006","1.03","1.007",1.007,null,1.006,1.03,"NORMAL",null,9,"WEEK 12","TREATMENT","2013-12-31T15:07",85],
["CDISCPILOT01","LB","CDISC004",196,"UROBIL","Urobilinogen","URINALYSIS","0",null,null,null,"0",0,null,null,null,"NORMAL",null,9,"WEEK 12","TREATMENT","2013-12-31T15:07",85],
["CDISCPILOT01","LB","CDISC004",269,"COLOR","Color","URINALYSIS","NORMAL",null,null,null,"NORMAL",null,null,null,null,"NORMAL",null,12,"WEEK 24","TREATMENT","2014-03-18T14:12",162],
["CDISCPILOT01","LB","CDISC004",277,"KETONES","Ketones","URINALYSIS","0",null,null,null,"0",0,null,null,null,"NORMAL",null,12,"WEEK 24","TREATMENT","2014-03-18T14:12",162],
["CDISCPILOT01","LB","CDISC004",284,"PH","pH","URINALYSIS","5",null,"5","8","5",5,null,5,8,"NORMAL",null,12,"WEEK 24","TREATMENT","2014-03-18T14:12",162],
["CDISCPILOT01","LB","CDISC004",289,"SPGRAV","Specific Gravity","URINALYSIS","1.007",null,"1.006","1.03","1.007",1.007,null,1.006,1.03,"NORMAL",null,12,"WEEK 24","TREATMENT","2014-03-18T14:12",162],
["CDISCPILOT01","LB","CDISC004",291,"UROBIL","Urobilinogen","URINALYSIS","0",null,null,null,"0",0,null,null,null,"NORMAL",null,12,"WEEK 24","TREATMENT","2014-03-18T14:12",162],
["CDISCPILOT01","LB","CDISC005",12,"COLOR","Color","URINALYSIS","NORMAL",null,null,null,"NORMAL",null,null,null,null,"NORMAL","Y",1,"SCREENING 1","SCREENING","2013-01-22T11:43",-13],
["CDISCPILOT01","LB","CDISC005",20,"KETONES","Ketones","URINALYSIS","0",null,null,null,"0",0,null,null,null,"NORMAL","Y",1,"SCREENING 1","SCREENING","2013-01-22T11:43",-13],
["CDISCPILOT01","LB","CDISC005",27,"PH","pH","URINALYSIS","6",null,"5","8","6",6,null,5,8,"NORMAL","Y",1,"SCREENING 1","SCREENING","2013-01-22T11:43",-13],
["CDISCPILOT01","LB","CDISC005",32,"SPGRAV","Specific Gravity","URINALYSIS","1.011",null,"1.006","1.03","1.011",1.011,null,1.006,1.03,"NORMAL","Y",1,"SCREENING 1","SCREENING","2013-01-22T11:43",-13],
["CDISCPILOT01","LB","CDISC005",33,"TSH","Thyrotropin","OTHER","3.66","mIU/L",".32","5","3.66",3.66,"mU/L",0.32,5,"NORMAL","Y",1,"SCREENING 1","SCREENING","2013-01-22T11:43",-13],
["CDISCPILOT01","LB","CDISC005",35,"UROBIL","Urobilinogen","URINALYSIS","0",null,null,null,"0",0,null,null,null,"NORMAL","Y",1,"SCREENING 1","SCREENING","2013-01-22T11:43",-13],
["CDISCPILOT01","LB","CDISC005",36,"VITB12","Vitamin B12","OTHER","555","ng/L","200","900","409.479",409.479,"pmol/L",148,664,"NORMAL","Y",1,"SCREENING 1","SCREENING","2013-01-22T11:43",-13],
["CDISCPILOT01","LB","CDISC005",49,"COLOR","Color","URINALYSIS","NORMAL",null,null,null,"NORMAL",null,null,null,null,"NORMAL",null,4,"WEEK 2","TREATMENT","2013-02-19T09:40",16],
["CDISCPILOT01","LB","CDISC005",57,"KETONES","Ketones","URINALYSIS","0",null,null,null,"0",0,null,null,null,"NORMAL",null,4,"WEEK 2","TREATMENT","2013-02-19T09:40",16],
["CDISCPILOT01","LB","CDISC005",64,"PH","pH","URINALYSIS","6",null,"5","8","6",6,null,5,8,"NORMAL",null,4,"WEEK 2","TREATMENT","2013-02-19T09:40",16],
["CDISCPILOT01","LB","CDISC005",69,"SPGRAV","Specific Gravity","URINALYSIS","1.016",null,"1.006","1.03","1.016",1.016,null,1.006,1.03,"NORMAL",null,4,"WEEK 2","TREATMENT","2013-02-19T09:40",16],
["CDISCPILOT01","LB","CDISC005",71,"UROBIL","Urobilinogen","URINALYSIS","0",null,null,null,"0",0,null,null,null,"NORMAL",null,4,"WEEK 2","TREATMENT","2013-02-19T09:40",16],
["CDISCPILOT01","LB","CDISC005",174,"COLOR","Color","URINALYSIS","NORMAL",null,null,null,"NORMAL",null,null,null,null,"NORMAL",null,9,"WEEK 12","TREATMENT","2013-04-30T13:14",86],
["CDISCPILOT01","LB","CDISC005",182,"KETONES","Ketones","URINALYSIS","0",null,null,null,"0",0,null,null,null,"NORMAL",null,9,"WEEK 12","TREATMENT","2013-04-30T13:14",86],
["CDISCPILOT01","LB","CDISC005",189,"PH","pH","URINALYSIS","5",null,"5","8","5",5,null,5,8,"NORMAL",null,9,"WEEK 12","TREATMENT","2013-04-30T13:14",86],
["CDISCPILOT01","LB","CDISC005",194,"SPGRAV","Specific Gravity","URINALYSIS","1.022",null,"1.006","1.03","1.022",1.022,null,1.006,1.03,"NORMAL",null,9,"WEEK 12","TREATMENT","2013-04-30T13:14",86],
["CDISCPILOT01","LB","CDISC005",196,"UROBIL","Urobilinogen","URINALYSIS","0",null,null,null,"0",0,null,null,null,"NORMAL",null,9,"WEEK 12","TREATMENT","2013-04-30T13:14",86],
["CDISCPILOT01","LB","CDISC005",269,"COLOR","Color","URINALYSIS","NORMAL",null,null,null,"NORMAL",null,null,null,null,"NORMAL",null,12,"WEEK 24","TREATMENT","2013-07-30T12:32",177],
["CDISCPILOT01","LB","CDISC005",277,"KETONES","Ketones","URINALYSIS","0",null,null,null,"0",0,null,null,null,"NORMAL",null,12,"WEEK 24","TREATMENT","2013-07-30T12:32",177],
["CDISCPILOT01","LB","CDISC005",284,"PH","pH","URINALYSIS","7",null,"5","8","7",7,null,5,8,"NORMAL",null,12,"WEEK 24","TREATMENT","2013-07-30T12:32",177],
["CDISCPILOT01","LB","CDISC005",289,"SPGRAV","Specific Gravity","URINALYSIS","1.017",null,"1.006","1.03","1.017",1.017,null,1.006,1.03,"NORMAL",null,12,"WEEK 24","TREATMENT","2013-07-30T12:32",177],
["CDISCPILOT01","LB","CDISC005",291,"UROBIL","Urobilinogen","URINALYSIS","0",null,null,null,"0",0,null,null,null,"NORMAL",null,12,"WEEK 24","TREATMENT","2013-07-30T12:32",177],
["CDISCPILOT01","LB","CDISC006",12,"COLOR","Color","URINALYSIS","NORMAL",null,null,null,"NORMAL",null,null,null,null,"NORMAL","Y",1,"SCREENING 1","SCREENING","2013-02-21T16:20",-26],
["CDISCPILOT01","LB","CDISC006",20,"KETONES","Ketones","URINALYSIS","0",null,null,null,"0",0,null,null,null,"NORMAL","Y",1,"SCREENING 1","SCREENING","2013-02-21T16:20",-26],
["CDISCPILOT01","LB","CDISC006",27,"PH","pH","URINALYSIS","6",null,"5","8","6",6,null,5,8,"NORMAL","Y",1,"SCREENING 1","SCREENING","2013-02-21T16:20",-26],
["CDISCPILOT01","LB","CDISC006",32,"SPGRAV","Specific Gravity","URINALYSIS","1.016",null,"1.006","1.03","1.016",1.016,null,1.006,1.03,"NORMAL","Y",1,"SCREENING 1","SCREENING","2013-02-21T16:20",-26],
["CDISCPILOT01","LB","CDISC006",33,"TSH","Thyrotropin","OTHER","1.19","mIU/L",".32","5","1.19",1.19,"mU/L",0.32,5,"NORMAL","Y",1,"SCREENING 1","SCREENING","2013-02-21T16:20",-26],
["CDISCPILOT01","LB","CDISC006",35,"UROBIL","Urobilinogen","URINALYSIS","0",null,null,null,"0",0,null,null,null,"NORMAL","Y",1,"SCREENING 1","SCREENING","2013-02-21T16:20",-26],
["CDISCPILOT01","LB","CDISC006",36,"VITB12","Vitamin B12","OTHER","329","ng/L","200","900","242.7362",242.7362,"pmol/L",148,664,"NORMAL","Y",1,"SCREENING 1","SCREENING","2013-02-21T16:20",-26],
["CDISCPILOT01","LB","CDISC006",49,"COLOR","Color","URINALYSIS","NORMAL",null,null,null,"NORMAL",null,null,null,null,"NORMAL",null,4,"WEEK 2","TREATMENT","2013-04-02T12:41",15],
["CDISCPILOT01","LB","CDISC006",57,"KETONES","Ketones","URINALYSIS","0",null,null,null,"0",0,null,null,null,"NORMAL",null,4,"WEEK 2","TREATMENT","2013-04-02T12:41",15],
["CDISCPILOT01","LB","CDISC006",64,"PH","pH","URINALYSIS","5",null,"5","8","5",5,null,5,8,"NORMAL",null,4,"WEEK 2","TREATMENT","2013-04-02T12:41",15],
["CDISCPILOT01","LB","CDISC006",69,"SPGRAV","Specific Gravity","URINALYSIS","1.013",null,"1.006","1.03","1.013",1.013,null,1.006,1.03,"NORMAL",null,4,"WEEK 2","TREATMENT","2013-04-02T12:41",15],
["CDISCPILOT01","LB","CDISC006",71,"UROBIL","Urobilinogen","URINALYSIS","0",null,null,null,"0",0,null,null,null,"NORMAL",null,4,"WEEK 2","TREATMENT","2013-04-02T12:41",15],
["CDISCPILOT01","LB","CDISC006",114,"COLOR","Color","URINALYSIS","NORMAL",null,null,null,"NORMAL",null,null,null,null,"NORMAL",null,7,"WEEK 6","TREATMENT","2013-04-30T12:22",43],
["CDISCPILOT01","LB","CDISC006",122,"KETONES","Ketones","URINALYSIS","0",null,null,null,"0",0,null,null,null,"NORMAL",null,7,"WEEK 6","TREATMENT","2013-04-30T12:22",43],
["CDISCPILOT01","LB","CDISC006",129,"PH","pH","URINALYSIS","6",null,"5","8","6",6,null,5,8,"NORMAL",null,7,"WEEK 6","TREATMENT","2013-04-30T12:22",43],
["CDISCPILOT01","LB","CDISC006",134,"SPGRAV","Specific Gravity","URINALYSIS","1.025",null,"1.006","1.03","1.025",1.025,null,1.006,1.03,"NORMAL",null,7,"WEEK 6","TREATMENT","2013-04-30T12:22",43],
["CDISCPILOT01","LB","CDISC006",136,"UROBIL","Urobilinogen","URINALYSIS","0",null,null,null,"0",0,null,null,null,"NORMAL",null,7,"WEEK 6","TREATMENT","2013-04-30T12:22",43],
["CDISCPILOT01","LB","CDISC007",12,"COLOR","Color","URINALYSIS","NORMAL",null,null,null,"NORMAL",null,null,null,null,"NORMAL","Y",1,"SCREENING 1","SCREENING","2012-12-31T11:05",-5],
["CDISCPILOT01","LB","CDISC007",20,"KETONES","Ketones","URINALYSIS","0",null,null,null,"0",0,null,null,null,"NORMAL","Y",1,"SCREENING 1","SCREENING","2012-12-31T11:05",-5],
["CDISCPILOT01","LB","CDISC007",27,"PH","pH","URINALYSIS","5",null,"5","8","5",5,null,5,8,"NORMAL","Y",1,"SCREENING 1","SCREENING","2012-12-31T11:05",-5],
["CDISCPILOT01","LB","CDISC007",32,"SPGRAV","Specific Gravity","URINALYSIS","1.015",null,"1.006","1.03","1.015",1.015,null,1.006,1.03,"NORMAL","Y",1,"SCREENING 1","SCREENING","2012-12-31T11:05",-5],
["CDISCPILOT01","LB","CDISC007",33,"TSH","Thyrotropin","OTHER","1.63","mIU/L",".32","5","1.63",1.63,"mU/L",0.32,5,"NORMAL","Y",1,"SCREENING 1","SCREENING","2012-12-31T11:05",-5],
["CDISCPILOT01","LB","CDISC007",35,"UROBIL","Urobilinogen","URINALYSIS","0",null,null,null,"0",0,null,null,null,"NORMAL","Y",1,"SCREENING 1","SCREENING","2012-12-31T11:05",-5],
["CDISCPILOT01","LB","CDISC007",36,"VITB12","Vitamin B12","OTHER","294","ng/L","200","900","216.9132",216.9132,"pmol/L",148,664,"NORMAL","Y",1,"SCREENING 1","SCREENING","2012-12-31T11:05",-5],
["CDISCPILOT01","LB","CDISC007",49,"COLOR","Color","URINALYSIS","NORMAL",null,null,null,"NORMAL",null,null,null,null,"NORMAL",null,4,"WEEK 2","TREATMENT","2013-01-18T14:19",14],
["CDISCPILOT01","LB","CDISC007",57,"KETONES","Ketones","URINALYSIS","0",null,null,null,"0",0,null,null,null,"NORMAL",null,4,"WEEK 2","TREATMENT","2013-01-18T14:19",14],
["CDISCPILOT01","LB","CDISC007",64,"PH","pH","URINALYSIS","5",null,"5","8","5",5,null,5,8,"NORMAL",null,4,"WEEK 2","TREATMENT","2013-01-18T14:19",14],
["CDISCPILOT01","LB","CDISC007",69,"SPGRAV","Specific Gravity","URINALYSIS","1.013",null,"1.006","1.03","1.013",1.013,null,1.006,1.03,"NORMAL",null,4,"WEEK 2","TREATMENT","2013-01-18T14:19",14],
["CDISCPILOT01","LB","CDISC007",71,"UROBIL","Urobilinogen","URINALYSIS","0",null,null,null,"0",0,null,null,null,"NORMAL",null,4,"WEEK 2","TREATMENT","2013-01-18T14:19",14],
["CDISCPILOT01","LB","CDISC007",114,"COLOR","Color","URINALYSIS","NORMAL",null,null,null,"NORMAL",null,null,null,null,"NORMAL",null,7,"WEEK 6","TREATMENT","2013-02-13T15:53",40],
["CDISCPILOT01","LB","CDISC007",122,"KETONES","Ketones","URINALYSIS","0",null,null,null,"0",0,null,null,null,"NORMAL",null,7,"WEEK 6","TREATMENT","2013-02-13T15:53",40],
["CDISCPILOT01","LB","CDISC007",129,"PH","pH","URINALYSIS","5",null,"5","8","5",5,null,5,8,"NORMAL",null,7,"WEEK 6","TREATMENT","2013-02-13T15:53",40],
["CDISCPILOT01","LB","CDISC007",134,"SPGRAV","Specific Gravity","URINALYSIS","1.028",null,"1.006","1.03","1.028",1.028,null,1.006,1.03,"NORMAL",null,7,"WEEK 6","TREATMENT","2013-02-13T15:53",40],
["CDISCPILOT01","LB","CDISC007",136,"UROBIL","Urobilinogen","URINALYSIS","0",null,null,null,"0",0,null,null,null,"NORMAL",null,7,"WEEK 6","TREATMENT","2013-02-13T15:53",40],
["CDISCPILOT01","LB","CDISC008",12,"COLOR","Color","URINALYSIS","NORMAL",null,null,null,"NORMAL",null,null,null,null,"NORMAL","Y",1,"SCREENING 1","SCREENING","2014-05-01T12:17",-10],
["CDISCPILOT01","LB","CDISC008",20,"KETONES","Ketones","URINALYSIS","0",null,null,null,"0",0,null,null,null,"NORMAL","Y",1,"SCREENING 1","SCREENING","2014-05-01T12:17",-10],
["CDISCPILOT01","LB","CDISC008",27,"PH","pH","URINALYSIS","6",null,"5","8","6",6,null,5,8,"NORMAL","Y",1,"SCREENING 1","SCREENING","2014-05-01T12:17",-10],
["CDISCPILOT01","LB","CDISC008",32,"SPGRAV","Specific Gravity","URINALYSIS","1.018",null,"1.006","1.03","1.018",1.018,null,1.006,1.03,"NORMAL","Y",1,"SCREENING 1","SCREENING","2014-05-01T12:17",-10],
["CDISCPILOT01","LB","CDISC008",33,"TSH","Thyrotropin","OTHER",".09","mIU/L",".32","5",".09",0.09,"mU/L",0.32,5,"LOW","Y",1,"SCREENING 1","SCREENING","2014-05-01T12:17",-10],
["CDISCPILOT01","LB","CDISC008",35,"UROBIL","Urobilinogen","URINALYSIS","0",null,null,null,"0",0,null,null,null,"NORMAL","Y",1,"SCREENING 1","SCREENING","2014-05-01T12:17",-10],
["CDISCPILOT01","LB","CDISC008",36,"VITB12","Vitamin B12","OTHER","597","ng/L","200","900","440.4666",440.4666,"pmol/L",148,664,"NORMAL","Y",1,"SCREENING 1","SCREENING","2014-05-01T12:17",-10],
["CDISCPILOT01","LB","CDISC008",49,"TSH","Thyrotropin","OTHER",".12","mIU/L",".32","5",".12",0.12,"mU/L",0.32,5,"LOW",null,1.01,"SCREENING 1: UNSCHEDULED 01","SCREENING","2014-05-03T15:00",-8],
["CDISCPILOT01","LB","CDISC008",63,"COLOR","Color","URINALYSIS","NORMAL",null,null,null,"NORMAL",null,null,null,null,"NORMAL",null,4,"WEEK 2","TREATMENT","2014-05-25T09:16",15],
["CDISCPILOT01","LB","CDISC008",71,"KETONES","Ketones","URINALYSIS","0",null,null,null,"0",0,null,null,null,"NORMAL",null,4,"WEEK 2","TREATMENT","2014-05-25T09:16",15],
["CDISCPILOT01","LB","CDISC008",78,"PH","pH","URINALYSIS","6",null,"5","8","6",6,null,5,8,"NORMAL",null,4,"WEEK 2","TREATMENT","2014-05-25T09:16",15],
["CDISCPILOT01","LB","CDISC008",84,"SPGRAV","Specific Gravity","URINALYSIS","1.017",null,"1.006","1.03","1.017",1.017,null,1.006,1.03,"NORMAL",null,4,"WEEK 2","TREATMENT","2014-05-25T09:16",15],
["CDISCPILOT01","LB","CDISC008",86,"UROBIL","Urobilinogen","URINALYSIS","0",null,null,null,"0",0,null,null,null,"NORMAL",null,4,"WEEK 2","TREATMENT","2014-05-25T09:16",15],
["CDISCPILOT01","LB","CDISC008",189,"COLOR","Color","URINALYSIS","NORMAL",null,null,null,"NORMAL",null,null,null,null,"NORMAL",null,9,"WEEK 12","TREATMENT","2014-08-06T15:45",88],
["CDISCPILOT01","LB","CDISC008",197,"KETONES","Ketones","URINALYSIS","0",null,null,null,"0",0,null,null,null,"NORMAL",null,9,"WEEK 12","TREATMENT","2014-08-06T15:45",88],
["CDISCPILOT01","LB","CDISC008",204,"PH","pH","URINALYSIS","5",null,"5","8","5",5,null,5,8,"NORMAL",null,9,"WEEK 12","TREATMENT","2014-08-06T15:45",88],
["CDISCPILOT01","LB","CDISC008",209,"SPGRAV","Specific Gravity","URINALYSIS","1.023",null,"1.006","1.03","1.023",1.023,null,1.006,1.03,"NORMAL",null,9,"WEEK 12","TREATMENT","2014-08-06T15:45",88],
["CDISCPILOT01","LB","CDISC008",211,"UROBIL","Urobilinogen","URINALYSIS","0",null,null,null,"0",0,null,null,null,"NORMAL",null,9,"WEEK 12","TREATMENT","2014-08-06T15:45",88],
["CDISCPILOT01","LB","CDISC008",253,"COLOR","Color","URINALYSIS","NORMAL",null,null,null,"NORMAL",null,null,null,null,"NORMAL",null,11,"WEEK 20","TREATMENT","2014-10-01T09:30",144],
["CDISCPILOT01","LB","CDISC008",260,"KETONES","Ketones","URINALYSIS","0",null,null,null,"0",0,null,null,null,"NORMAL",null,11,"WEEK 20","TREATMENT","2014-10-01T09:30",144],
["CDISCPILOT01","LB","CDISC008",266,"PH","pH","URINALYSIS","6",null,"5","8","6",6,null,5,8,"NORMAL",null,11,"WEEK 20","TREATMENT","2014-10-01T09:30",144],
["CDISCPILOT01","LB","CDISC008",271,"SPGRAV","Specific Gravity","URINALYSIS","1.023",null,"1.006","1.03","1.023",1.023,null,1.006,1.03,"NORMAL",null,11,"WEEK 20","TREATMENT","2014-10-01T09:30",144],
["CDISCPILOT01","LB","CDISC008",273,"UROBIL","Urobilinogen","URINALYSIS","0",null,null,null,"0",0,null,null,null,"NORMAL",null,11,"WEEK 20","TREATMENT","2014-10-01T09:30",144],
["CDISCPILOT01","LB","CDISC009",12,"COLOR","Color","URINALYSIS","NORMAL",null,null,null,"NORMAL",null,null,null,null,"NORMAL","Y",1,"SCREENING 1","SCREENING","2012-10-06T13:25",-16],
["CDISCPILOT01","LB","CDISC009",20,"KETONES","Ketones","URINALYSIS","0",null,null,null,"0",0,null,null,null,"NORMAL","Y",1,"SCREENING 1","SCREENING","2012-10-06T13:25",-16],
["CDISCPILOT01","LB","CDISC009",27,"PH","pH","URINALYSIS","5",null,"5","8","5",5,null,5,8,"NORMAL","Y",1,"SCREENING 1","SCREENING","2012-10-06T13:25",-16],
["CDISCPILOT01","LB","CDISC009",32,"SPGRAV","Specific Gravity","URINALYSIS","1.018",null,"1.006","1.03","1.018",1.018,null,1.006,1.03,"NORMAL","Y",1,"SCREENING 1","SCREENING","2012-10-06T13:25",-16],
["CDISCPILOT01","LB","CDISC009",33,"TSH","Thyrotropin","OTHER",".97","mIU/L",".32","5",".97",0.97,"mU/L",0.32,5,"NORMAL","Y",1,"SCREENING 1","SCREENING","2012-10-06T13:25",-16],
["CDISCPILOT01","LB","CDISC009",35,"UROBIL","Urobilinogen","URINALYSIS","0",null,null,null,"0",0,null,null,null,"NORMAL","Y",1,"SCREENING 1","SCREENING","2012-10-06T13:25",-16],
["CDISCPILOT01","LB","CDISC009",36,"VITB12","Vitamin B12","OTHER","402","ng/L","200","900","296.5956",296.5956,"pmol/L",148,664,"NORMAL","Y",1,"SCREENING 1","SCREENING","2012-10-06T13:25",-16],
["CDISCPILOT01","LB","CDISC009",49,"COLOR","Color","URINALYSIS","NORMAL",null,null,null,"NORMAL",null,null,null,null,"NORMAL",null,4,"WEEK 2","TREATMENT","2012-11-05T11:15",15],
["CDISCPILOT01","LB","CDISC009",57,"KETONES","Ketones","URINALYSIS","0",null,null,null,"0",0,null,null,null,"NORMAL",null,4,"WEEK 2","TREATMENT","2012-11-05T11:15",15],
["CDISCPILOT01","LB","CDISC009",64,"PH","pH","URINALYSIS","5",null,"5","8","5",5,null,5,8,"NORMAL",null,4,"WEEK 2","TREATMENT","2012-11-05T11:15",15],
["CDISCPILOT01","LB","CDISC009",69,"SPGRAV","Specific Gravity","URINALYSIS","1.019",null,"1.006","1.03","1.019",1.019,null,1.006,1.03,"NORMAL",null,4,"WEEK 2","TREATMENT","2012-11-05T11:15",15],
["CDISCPILOT01","LB","CDISC009",71,"UROBIL","Urobilinogen","URINALYSIS","0",null,null,null,"0",0,null,null,null,"NORMAL",null,4,"WEEK 2","TREATMENT","2012-11-05T11:15",15],
["CDISCPILOT01","LB","CDISC009",174,"COLOR","Color","URINALYSIS","NORMAL",null,null,null,"NORMAL",null,null,null,null,"NORMAL",null,9,"WEEK 12","TREATMENT","2013-01-19T15:15",90],
["CDISCPILOT01","LB","CDISC009",182,"KETONES","Ketones","URINALYSIS","0",null,null,null,"0",0,null,null,null,"NORMAL",null,9,"WEEK 12","TREATMENT","2013-01-19T15:15",90],
["CDISCPILOT01","LB","CDISC009",189,"PH","pH","URINALYSIS","5",null,"5","8","5",5,null,5,8,"NORMAL",null,9,"WEEK 12","TREATMENT","2013-01-19T15:15",90],
["CDISCPILOT01","LB","CDISC009",194,"SPGRAV","Specific Gravity","URINALYSIS","1.013",null,"1.006","1.03","1.013",1.013,null,1.006,1.03,"NORMAL",null,9,"WEEK 12","TREATMENT","2013-01-19T15:15",90],
["CDISCPILOT01","LB","CDISC009",196,"UROBIL","Urobilinogen","URINALYSIS","0",null,null,null,"0",0,null,null,null,"NORMAL",null,9,"WEEK 12","TREATMENT","2013-01-19T15:15",90],
["CDISCPILOT01","LB","CDISC009",270,"COLOR","Color","URINALYSIS","NORMAL",null,null,null,"NORMAL",null,null,null,null,"NORMAL",null,12,"WEEK 24","TREATMENT","2013-04-10T12:30",171],
["CDISCPILOT01","LB","CDISC009",278,"KETONES","Ketones","URINALYSIS","0",null,null,null,"0",0,null,null,null,"NORMAL",null,12,"WEEK 24","TREATMENT","2013-04-10T12:30",171],
["CDISCPILOT01","LB","CDISC009",285,"PH","pH","URINALYSIS","5",null,"5","8","5",5,null,5,8,"NORMAL",null,12,"WEEK 24","TREATMENT","2013-04-10T12:30",171],
["CDISCPILOT01","LB","CDISC009",290,"SPGRAV","Specific Gravity","URINALYSIS","1.02",null,"1.006","1.03","1.02",1.02,null,1.006,1.03,"NORMAL",null,12,"WEEK 24","TREATMENT","2013-04-10T12:30",171],
["CDISCPILOT01","LB","CDISC009",292,"UROBIL","Urobilinogen","URINALYSIS","0",null,null,null,"0",0,null,null,null,"NORMAL",null,12,"WEEK 24","TREATMENT","2013-04-10T12:30",171],
["CDISCPILOT01","LB","CDISC010",12,"COLOR","Color","URINALYSIS","NORMAL",null,null,null,"NORMAL",null,null,null,null,"NORMAL","Y",1,"SCREENING 1","SCREENING","2013-09-08T12:40",-13],
["CDISCPILOT01","LB","CDISC010",19,"KETONES","Ketones","URINALYSIS","0",null,null,null,"0",0,null,null,null,"NORMAL","Y",1,"SCREENING 1","SCREENING","2013-09-08T12:40",-13],
["CDISCPILOT01","LB","CDISC010",26,"PH","pH","URINALYSIS","6",null,"5","8","6",6,null,5,8,"NORMAL","Y",1,"SCREENING 1","SCREENING","2013-09-08T12:40",-13],
["CDISCPILOT01","LB","CDISC010",30,"SPGRAV","Specific Gravity","URINALYSIS","1.015",null,"1.006","1.03","1.015",1.015,null,1.006,1.03,"NORMAL","Y",1,"SCREENING 1","SCREENING","2013-09-08T12:40",-13],
["CDISCPILOT01","LB","CDISC010",31,"TSH","Thyrotropin","OTHER",".99","mIU/L",".32","5",".99",0.99,"mU/L",0.32,5,"NORMAL","Y",1,"SCREENING 1","SCREENING","2013-09-08T12:40",-13],
["CDISCPILOT01","LB","CDISC010",33,"UROBIL","Urobilinogen","URINALYSIS","0",null,null,null,"0",0,null,null,null,"NORMAL","Y",1,"SCREENING 1","SCREENING","2013-09-08T12:40",-13],
["CDISCPILOT01","LB","CDISC010",34,"VITB12","Vitamin B12","OTHER","147","ng/L","200","900","108.4566",108.4566,"pmol/L",148,664,"LOW","Y",1,"SCREENING 1","SCREENING","2013-09-08T12:40",-13],
["CDISCPILOT01","LB","CDISC011",12,"COLOR","Color","URINALYSIS","NORMAL",null,null,null,"NORMAL",null,null,null,null,"NORMAL","Y",1,"SCREENING 1","SCREENING","2012-11-21T11:20",-16],
["CDISCPILOT01","LB","CDISC011",20,"KETONES","Ketones","URINALYSIS","0",null,null,null,"0",0,null,null,null,"NORMAL","Y",1,"SCREENING 1","SCREENING","2012-11-21T11:20",-16],
["CDISCPILOT01","LB","CDISC011",27,"PH","pH","URINALYSIS","5",null,"5","8","5",5,null,5,8,"NORMAL","Y",1,"SCREENING 1","SCREENING","2012-11-21T11:20",-16],
["CDISCPILOT01","LB","CDISC011",32,"SPGRAV","Specific Gravity","URINALYSIS","1.006",null,"1.006","1.03","1.006",1.006,null,1.006,1.03,"NORMAL","Y",1,"SCREENING 1","SCREENING","2012-11-21T11:20",-16],
["CDISCPILOT01","LB","CDISC011",33,"TSH","Thyrotropin","OTHER","2.03","mIU/L",".32","5","2.03",2.03,"mU/L",0.32,5,"NORMAL","Y",1,"SCREENING 1","SCREENING","2012-11-21T11:20",-16],
["CDISCPILOT01","LB","CDISC011",35,"UROBIL","Urobilinogen","URINALYSIS","0",null,null,null,"0",0,null,null,null,"NORMAL","Y",1,"SCREENING 1","SCREENING","2012-11-21T11:20",-16],
["CDISCPILOT01","LB","CDISC011",36,"VITB12","Vitamin B12","OTHER","250","ng/L","200","900","184.45",184.45,"pmol/L",148,664,"NORMAL","Y",1,"SCREENING 1","SCREENING","2012-11-21T11:20",-16],
["CDISCPILOT01","LB","CDISC011",49,"COLOR","Color","URINALYSIS","NORMAL",null,null,null,"NORMAL",null,null,null,null,"NORMAL",null,4,"WEEK 2","TREATMENT","2012-12-21T08:30",15],
["CDISCPILOT01","LB","CDISC011",57,"KETONES","Ketones","URINALYSIS","0",null,null,null,"0",0,null,null,null,"NORMAL",null,4,"WEEK 2","TREATMENT","2012-12-21T08:30",15],
["CDISCPILOT01","LB","CDISC011",64,"PH","pH","URINALYSIS","5",null,"5","8","5",5,null,5,8,"NORMAL",null,4,"WEEK 2","TREATMENT","2012-12-21T08:30",15],
["CDISCPILOT01","LB","CDISC011",69,"SPGRAV","Specific Gravity","URINALYSIS","1.03",null,"1.006","1.03","1.03",1.03,null,1.006,1.03,"NORMAL",null,4,"WEEK 2","TREATMENT","2012-12-21T08:30",15],
["CDISCPILOT01","LB","CDISC011",71,"UROBIL","Urobilinogen","URINALYSIS","0",null,null,null,"0",0,null,null,null,"NORMAL",null,4,"WEEK 2","TREATMENT","2012-12-21T08:30",15],
["CDISCPILOT01","LB","CDISC011",174,"COLOR","Color","URINALYSIS","NORMAL",null,null,null,"NORMAL",null,null,null,null,"NORMAL",null,9,"WEEK 12","TREATMENT","2013-02-27T13:55",83],
["CDISCPILOT01","LB","CDISC011",181,"KETONES","Ketones","URINALYSIS","0",null,null,null,"0",0,null,null,null,"NORMAL",null,9,"WEEK 12","TREATMENT","2013-02-27T13:55",83],
["CDISCPILOT01","LB","CDISC011",189,"PH","pH","URINALYSIS","5",null,"5","8","5",5,null,5,8,"NORMAL",null,9,"WEEK 12","TREATMENT","2013-02-27T13:55",83],
["CDISCPILOT01","LB","CDISC011",194,"SPGRAV","Specific Gravity","URINALYSIS","1.025",null,"1.006","1.03","1.025",1.025,null,1.006,1.03,"NORMAL",null,9,"WEEK 12","TREATMENT","2013-02-27T13:55",83],
["CDISCPILOT01","LB","CDISC011",196,"UROBIL","Urobilinogen","URINALYSIS","0",null,null,null,"0",0,null,null,null,"NORMAL",null,9,"WEEK 12","TREATMENT","2013-02-27T13:55",83],
["CDISCPILOT01","LB","CDISC011",269,"COLOR","Color","URINALYSIS","NORMAL",null,null,null,"NORMAL",null,null,null,null,"NORMAL",null,12,"WEEK 24","TREATMENT","2013-05-22T10:00",167],
["CDISCPILOT01","LB","CDISC011",277,"KETONES","Ketones","URINALYSIS","0",null,null,null,"0",0,null,null,null,"NORMAL",null,12,"WEEK 24","TREATMENT","2013-05-22T10:00",167],
["CDISCPILOT01","LB","CDISC011",284,"PH","pH","URINALYSIS","7",null,"5","8","7",7,null,5,8,"NORMAL",null,12,"WEEK 24","TREATMENT","2013-05-22T10:00",167],
["CDISCPILOT01","LB","CDISC011",289,"SPGRAV","Specific Gravity","URINALYSIS","1.021",null,"1.006","1.03","1.021",1.021,null,1.006,1.03,"NORMAL",null,12,"WEEK 24","TREATMENT","2013-05-22T10:00",167],
["CDISCPILOT01","LB","CDISC011",291,"UROBIL","Urobilinogen","URINALYSIS","0",null,null,null,"0",0,null,null,null,"NORMAL",null,12,"WEEK 24","TREATMENT","2013-05-22T10:00",167],
["CDISCPILOT01","LB","CDISC012",12,"COLOR","Color","URINALYSIS","NORMAL",null,null,null,"NORMAL",null,null,null,null,"NORMAL","Y",1,"SCREENING 1","SCREENING","2013-08-24T10:55",-10],
["CDISCPILOT01","LB","CDISC012",20,"KETONES","Ketones","URINALYSIS","0",null,null,null,"0",0,null,null,null,"NORMAL","Y",1,"SCREENING 1","SCREENING","2013-08-24T10:55",-10],
["CDISCPILOT01","LB","CDISC012",27,"PH","pH","URINALYSIS","5",null,"5","8","5",5,null,5,8,"NORMAL","Y",1,"SCREENING 1","SCREENING","2013-08-24T10:55",-10],
["CDISCPILOT01","LB","CDISC012",32,"SPGRAV","Specific Gravity","URINALYSIS","1.016",null,"1.006","1.03","1.016",1.016,null,1.006,1.03,"NORMAL","Y",1,"SCREENING 1","SCREENING","2013-08-24T10:55",-10],
["CDISCPILOT01","LB","CDISC012",33,"TSH","Thyrotropin","OTHER","1.45","mIU/L",".32","5","1.45",1.45,"mU/L",0.32,5,"NORMAL","Y",1,"SCREENING 1","SCREENING","2013-08-24T10:55",-10],
["CDISCPILOT01","LB","CDISC012",35,"UROBIL","Urobilinogen","URINALYSIS","0",null,null,null,"0",0,null,null,null,"NORMAL","Y",1,"SCREENING 1","SCREENING","2013-08-24T10:55",-10],
["CDISCPILOT01","LB","CDISC012",36,"VITB12","Vitamin B12","OTHER","284","ng/L","200","900","209.5352",209.5352,"pmol/L",148,664,"NORMAL","Y",1,"SCREENING 1","SCREENING","2013-08-24T10:55",-10],
["CDISCPILOT01","LB","CDISC012",49,"COLOR","Color","URINALYSIS","NORMAL",null,null,null,"NORMAL",null,null,null,null,"NORMAL",null,4,"WEEK 2","TREATMENT","2013-09-21T09:45",19],
["CDISCPILOT01","LB","CDISC012",57,"KETONES","Ketones","URINALYSIS","0",null,null,null,"0",0,null,null,null,"NORMAL",null,4,"WEEK 2","TREATMENT","2013-09-21T09:45",19],
["CDISCPILOT01","LB","CDISC012",64,"PH","pH","URINALYSIS","5",null,"5","8","5",5,null,5,8,"NORMAL",null,4,"WEEK 2","TREATMENT","2013-09-21T09:45",19],
["CDISCPILOT01","LB","CDISC012",69,"SPGRAV","Specific Gravity","URINALYSIS","1.017",null,"1.006","1.03","1.017",1.017,null,1.006,1.03,"NORMAL",null,4,"WEEK 2","TREATMENT","2013-09-21T09:45",19],
["CDISCPILOT01","LB","CDISC012",71,"UROBIL","Urobilinogen","URINALYSIS","0",null,null,null,"0",0,null,null,null,"NORMAL",null,4,"WEEK 2","TREATMENT","2013-09-21T09:45",19],
["CDISCPILOT01","LB","CDISC012",174,"COLOR","Color","URINALYSIS","NORMAL",null,null,null,"NORMAL",null,null,null,null,"NORMAL",null,9,"WEEK 12","TREATMENT","2013-12-02T14:00",91],
["CDISCPILOT01","LB","CDISC012",182,"KETONES","Ketones","URINALYSIS","0",null,null,null,"0",0,null,null,null,"NORMAL",null,9,"WEEK 12","TREATMENT","2013-12-02T14:00",91],
["CDISCPILOT01","LB","CDISC012",189,"PH","pH","URINALYSIS","5",null,"5","8","5",5,null,5,8,"NORMAL",null,9,"WEEK 12","TREATMENT","2013-12-02T14:00",91],
["CDISCPILOT01","LB","CDISC012",194,"SPGRAV","Specific Gravity","URINALYSIS","1.013",null,"1.006","1.03","1.013",1.013,null,1.006,1.03,"NORMAL",null,9,"WEEK 12","TREATMENT","2013-12-02T14:00",91],
["CDISCPILOT01","LB","CDISC012",196,"UROBIL","Urobilinogen","URINALYSIS","0",null,null,null,"0",0,null,null,null,"NORMAL",null,9,"WEEK 12","TREATMENT","2013-12-02T14:00",91],
["CDISCPILOT01","LB","CDISC012",239,"COLOR","Color","URINALYSIS","NORMAL",null,null,null,"NORMAL",null,null,null,null,"NORMAL",null,11,"WEEK 20","TREATMENT","2014-01-28T13:00",148],
["CDISCPILOT01","LB","CDISC012",247,"KETONES","Ketones","URINALYSIS","0",null,null,null,"0",0,null,null,null,"NORMAL",null,11,"WEEK 20","TREATMENT","2014-01-28T13:00",148],
["CDISCPILOT01","LB","CDISC012",254,"PH","pH","URINALYSIS","5",null,"5","8","5",5,null,5,8,"NORMAL",null,11,"WEEK 20","TREATMENT","2014-01-28T13:00",148],
["CDISCPILOT01","LB","CDISC012",259,"SPGRAV","Specific Gravity","URINALYSIS","1.017",null,"1.006","1.03","1.017",1.017,null,1.006,1.03,"NORMAL",null,11,"WEEK 20","TREATMENT","2014-01-28T13:00",148],
["CDISCPILOT01","LB","CDISC012",261,"UROBIL","Urobilinogen","URINALYSIS","0",null,null,null,"0",0,null,null,null,"NORMAL",null,11,"WEEK 20","TREATMENT","2014-01-28T13:00",148],
["CDISCPILOT01","LB","CDISC013",12,"COLOR","Color","URINALYSIS","NORMAL",null,null,null,"NORMAL",null,null,null,null,"NORMAL","Y",1,"SCREENING 1","SCREENING","2013-07-09T16:35",-13],
["CDISCPILOT01","LB","CDISC013",20,"KETONES","Ketones","URINALYSIS","0",null,null,null,"0",0,null,null,null,"NORMAL","Y",1,"SCREENING 1","SCREENING","2013-07-09T16:35",-13],
["CDISCPILOT01","LB","CDISC013",27,"PH","pH","URINALYSIS","5",null,"5","8","5",5,null,5,8,"NORMAL","Y",1,"SCREENING 1","SCREENING","2013-07-09T16:35",-13],
["CDISCPILOT01","LB","CDISC013",32,"SPGRAV","Specific Gravity","URINALYSIS","1.023",null,"1.006","1.03","1.023",1.023,null,1.006,1.03,"NORMAL","Y",1,"SCREENING 1","SCREENING","2013-07-09T16:35",-13],
["CDISCPILOT01","LB","CDISC013",33,"TSH","Thyrotropin","OTHER","1.37","mIU/L",".32","5","1.37",1.37,"mU/L",0.32,5,"NORMAL","Y",1,"SCREENING 1","SCREENING","2013-07-09T16:35",-13],
["CDISCPILOT01","LB","CDISC013",35,"UROBIL","Urobilinogen","URINALYSIS","0",null,null,null,"0",0,null,null,null,"NORMAL","Y",1,"SCREENING 1","SCREENING","2013-07-09T16:35",-13],
["CDISCPILOT01","LB","CDISC013",36,"VITB12","Vitamin B12","OTHER","433","ng/L","200","900","319.4674",319.4674,"pmol/L",148,664,"NORMAL","Y",1,"SCREENING 1","SCREENING","2013-07-09T16:35",-13],
["CDISCPILOT01","LB","CDISC014",12,"COLOR","Color","URINALYSIS","NORMAL",null,null,null,"NORMAL",null,null,null,null,"NORMAL","Y",1,"SCREENING 1","SCREENING","2013-03-20T14:12",-14],
["CDISCPILOT01","LB","CDISC014",20,"KETONES","Ketones","URINALYSIS","0",null,null,null,"0",0,null,null,null,"NORMAL","Y",1,"SCREENING 1","SCREENING","2013-03-20T14:12",-14],
["CDISCPILOT01","LB","CDISC014",27,"PH","pH","URINALYSIS","7",null,"5","8","7",7,null,5,8,"NORMAL","Y",1,"SCREENING 1","SCREENING","2013-03-20T14:12",-14],
["CDISCPILOT01","LB","CDISC014",32,"SPGRAV","Specific Gravity","URINALYSIS","1.008",null,"1.006","1.03","1.008",1.008,null,1.006,1.03,"NORMAL","Y",1,"SCREENING 1","SCREENING","2013-03-20T14:12",-14],
["CDISCPILOT01","LB","CDISC014",33,"TSH","Thyrotropin","OTHER","2.05","mIU/L",".32","5","2.05",2.05,"mU/L",0.32,5,"NORMAL","Y",1,"SCREENING 1","SCREENING","2013-03-20T14:12",-14],
["CDISCPILOT01","LB","CDISC014",35,"UROBIL","Urobilinogen","URINALYSIS","0",null,null,null,"0",0,null,null,null,"NORMAL","Y",1,"SCREENING 1","SCREENING","2013-03-20T14:12",-14],
["CDISCPILOT01","LB","CDISC014",36,"VITB12","Vitamin B12","OTHER","345","ng/L","200","900","254.541",254.541,"pmol/L",148,664,"NORMAL","Y",1,"SCREENING 1","SCREENING","2013-03-20T14:12",-14],
["CDISCPILOT01","LB","CDISC014",67,"COLOR","Color","URINALYSIS","NORMAL",null,null,null,"NORMAL",null,null,null,null,"NORMAL",null,4,"WEEK 2","TREATMENT","2013-04-17T14:42",15],
["CDISCPILOT01","LB","CDISC014",75,"KETONES","Ketones","URINALYSIS","0",null,null,null,"0",0,null,null,null,"NORMAL",null,4,"WEEK 2","TREATMENT","2013-04-17T14:42",15],
["CDISCPILOT01","LB","CDISC014",82,"PH","pH","URINALYSIS","6",null,"5","8","6",6,null,5,8,"NORMAL",null,4,"WEEK 2","TREATMENT","2013-04-17T14:42",15],
["CDISCPILOT01","LB","CDISC014",87,"SPGRAV","Specific Gravity","URINALYSIS","1.007",null,"1.006","1.03","1.007",1.007,null,1.006,1.03,"NORMAL",null,4,"WEEK 2","TREATMENT","2013-04-17T14:42",15],
["CDISCPILOT01","LB","CDISC014",89,"UROBIL","Urobilinogen","URINALYSIS","0",null,null,null,"0",0,null,null,null,"NORMAL",null,4,"WEEK 2","TREATMENT","2013-04-17T14:42",15],
["CDISCPILOT01","LB","CDISC014",102,"COLOR","Color","URINALYSIS","NORMAL",null,null,null,"NORMAL",null,null,null,null,"NORMAL",null,5,"WEEK 4","TREATMENT","2013-05-02T09:40",30],
["CDISCPILOT01","LB","CDISC014",110,"KETONES","Ketones","URINALYSIS","0",null,null,null,"0",0,null,null,null,"NORMAL",null,5,"WEEK 4","TREATMENT","2013-05-02T09:40",30],
["CDISCPILOT01","LB","CDISC014",117,"PH","pH","URINALYSIS","7",null,"5","8","7",7,null,5,8,"NORMAL",null,5,"WEEK 4","TREATMENT","2013-05-02T09:40",30],
["CDISCPILOT01","LB","CDISC014",122,"SPGRAV","Specific Gravity","URINALYSIS","1.021",null,"1.006","1.03","1.021",1.021,null,1.006,1.03,"NORMAL",null,5,"WEEK 4","TREATMENT","2013-05-02T09:40",30],
["CDISCPILOT01","LB","CDISC014",124,"UROBIL","Urobilinogen","URINALYSIS","0",null,null,null,"0",0,null,null,null,"NORMAL",null,5,"WEEK 4","TREATMENT","2013-05-02T09:40",30],
["CDISCPILOT01","LB","CDISC016",12,"COLOR","Color","URINALYSIS","NORMAL",null,null,null,"NORMAL",null,null,null,null,"NORMAL","Y",1,"SCREENING 1","SCREENING","2013-03-24T12:18",-10],
["CDISCPILOT01","LB","CDISC016",20,"KETONES","Ketones","URINALYSIS","0",null,null,null,"0",0,null,null,null,"NORMAL","Y",1,"SCREENING 1","SCREENING","2013-03-24T12:18",-10],
["CDISCPILOT01","LB","CDISC016",27,"PH","pH","URINALYSIS","6",null,"5","8","6",6,null,5,8,"NORMAL","Y",1,"SCREENING 1","SCREENING","2013-03-24T12:18",-10],
["CDISCPILOT01","LB","CDISC016",32,"SPGRAV","Specific Gravity","URINALYSIS","1.007",null,"1.006","1.03","1.007",1.007,null,1.006,1.03,"NORMAL","Y",1,"SCREENING 1","SCREENING","2013-03-24T12:18",-10],
["CDISCPILOT01","LB","CDISC016",33,"TSH","Thyrotropin","OTHER","0","mIU/L",".32","5","0",0,"mU/L",0.32,5,"LOW","Y",1,"SCREENING 1","SCREENING","2013-03-24T12:18",-10],
["CDISCPILOT01","LB","CDISC016",35,"UROBIL","Urobilinogen","URINALYSIS","0",null,null,null,"0",0,null,null,null,"NORMAL","Y",1,"SCREENING 1","SCREENING","2013-03-24T12:18",-10],
["CDISCPILOT01","LB","CDISC016",36,"VITB12","Vitamin B12","OTHER","508","ng/L","200","900","374.8024",374.8024,"pmol/L",148,664,"NORMAL","Y",1,"SCREENING 1","SCREENING","2013-03-24T12:18",-10],
["CDISCPILOT01","LB","CDISC016",49,"COLOR","Color","URINALYSIS","NORMAL",null,null,null,"NORMAL",null,null,null,null,"NORMAL",null,4,"WEEK 2","TREATMENT","2013-04-17T14:13",15],
["CDISCPILOT01","LB","CDISC016",57,"KETONES","Ketones","URINALYSIS","0",null,null,null,"0",0,null,null,null,"NORMAL",null,4,"WEEK 2","TREATMENT","2013-04-17T14:13",15],
["CDISCPILOT01","LB","CDISC016",64,"PH","pH","URINALYSIS","5",null,"5","8","5",5,null,5,8,"NORMAL",null,4,"WEEK 2","TREATMENT","2013-04-17T14:13",15],
["CDISCPILOT01","LB","CDISC016",69,"SPGRAV","Specific Gravity","URINALYSIS","1.011",null,"1.006","1.03","1.011",1.011,null,1.006,1.03,"NORMAL",null,4,"WEEK 2","TREATMENT","2013-04-17T14:13",15],
["CDISCPILOT01","LB","CDISC016",71,"UROBIL","Urobilinogen","URINALYSIS","0",null,null,null,"0",0,null,null,null,"NORMAL",null,4,"WEEK 2","TREATMENT","2013-04-17T14:13",15],
["CDISCPILOT01","LB","CDISC016",198,"COLOR","Color","URINALYSIS","NORMAL",null,null,null,"NORMAL",null,null,null,null,"NORMAL",null,9,"WEEK 12","TREATMENT","2013-06-01T13:11",60],
["CDISCPILOT01","LB","CDISC016",206,"KETONES","Ketones","URINALYSIS","0",null,null,null,"0",0,null,null,null,"NORMAL",null,9,"WEEK 12","TREATMENT","2013-06-01T13:11",60],
["CDISCPILOT01","LB","CDISC016",213,"PH","pH","URINALYSIS","5",null,"5","8","5",5,null,5,8,"NORMAL",null,9,"WEEK 12","TREATMENT","2013-06-01T13:11",60],
["CDISCPILOT01","LB","CDISC016",218,"SPGRAV","Specific Gravity","URINALYSIS","1.008",null,"1.006","1.03","1.008",1.008,null,1.006,1.03,"NORMAL",null,9,"WEEK 12","TREATMENT","2013-06-01T13:11",60],
["CDISCPILOT01","LB","CDISC016",220,"UROBIL","Urobilinogen","URINALYSIS","0",null,null,null,"0",0,null,null,null,"NORMAL",null,9,"WEEK 12","TREATMENT","2013-06-01T13:11",60],
["CDISCPILOT01","LB","CDISC017",12,"COLOR","Color","URINALYSIS","NORMAL",null,null,null,"NORMAL",null,null,null,null,"NORMAL","Y",1,"SCREENING 1","SCREENING","2013-08-15T09:15",-37],
["CDISCPILOT01","LB","CDISC017",20,"KETONES","Ketones","URINALYSIS","0",null,null,null,"0",0,null,null,null,"NORMAL","Y",1,"SCREENING 1","SCREENING","2013-08-15T09:15",-37],
["CDISCPILOT01","LB","CDISC017",27,"PH","pH","URINALYSIS","5",null,"5","8","5",5,null,5,8,"NORMAL","Y",1,"SCREENING 1","SCREENING","2013-08-15T09:15",-37],
["CDISCPILOT01","LB","CDISC017",32,"SPGRAV","Specific Gravity","URINALYSIS","1.021",null,"1.006","1.03","1.021",1.021,null,1.006,1.03,"NORMAL","Y",1,"SCREENING 1","SCREENING","2013-08-15T09:15",-37],
["CDISCPILOT01","LB","CDISC017",33,"TSH","Thyrotropin","OTHER","2.3","mIU/L",".32","5","2.3",2.3,"mU/L",0.32,5,"NORMAL","Y",1,"SCREENING 1","SCREENING","2013-08-15T09:15",-37],
["CDISCPILOT01","LB","CDISC017",35,"UROBIL","Urobilinogen","URINALYSIS","0",null,null,null,"0",0,null,null,null,"NORMAL","Y",1,"SCREENING 1","SCREENING","2013-08-15T09:15",-37],
["CDISCPILOT01","LB","CDISC017",36,"VITB12","Vitamin B12","OTHER","360","ng/L","200","900","265.608",265.608,"pmol/L",148,664,"NORMAL","Y",1,"SCREENING 1","SCREENING","2013-08-15T09:15",-37],
["CDISCPILOT01","LB","CDISC017",49,"COLOR","Color","URINALYSIS","NORMAL",null,null,null,"NORMAL",null,null,null,null,"NORMAL",null,4,"WEEK 2","TREATMENT","2013-10-03T11:45",13],
["CDISCPILOT01","LB","CDISC017",57,"KETONES","Ketones","URINALYSIS","0",null,null,null,"0",0,null,null,null,"NORMAL",null,4,"WEEK 2","TREATMENT","2013-10-03T11:45",13],
["CDISCPILOT01","LB","CDISC017",64,"PH","pH","URINALYSIS","5",null,"5","8","5",5,null,5,8,"NORMAL",null,4,"WEEK 2","TREATMENT","2013-10-03T11:45",13],
["CDISCPILOT01","LB","CDISC017",69,"SPGRAV","Specific Gravity","URINALYSIS","1.018",null,"1.006","1.03","1.018",1.018,null,1.006,1.03,"NORMAL",null,4,"WEEK 2","TREATMENT","2013-10-03T11:45",13],
["CDISCPILOT01","LB","CDISC017",71,"UROBIL","Urobilinogen","URINALYSIS","0",null,null,null,"0",0,null,null,null,"NORMAL",null,4,"WEEK 2","TREATMENT","2013-10-03T11:45",13],
["CDISCPILOT01","LB","CDISC017",174,"COLOR","Color","URINALYSIS","NORMAL",null,null,null,"NORMAL",null,null,null,null,"NORMAL",null,9,"WEEK 12","TREATMENT","2013-12-14T16:00",85],
["CDISCPILOT01","LB","CDISC017",182,"KETONES","Ketones","URINALYSIS","0",null,null,null,"0",0,null,null,null,"NORMAL",null,9,"WEEK 12","TREATMENT","2013-12-14T16:00",85],
["CDISCPILOT01","LB","CDISC017",189,"PH","pH","URINALYSIS","5",null,"5","8","5",5,null,5,8,"NORMAL",null,9,"WEEK 12","TREATMENT","2013-12-14T16:00",85],
["CDISCPILOT01","LB","CDISC017",194,"SPGRAV","Specific Gravity","URINALYSIS","1.028",null,"1.006","1.03","1.028",1.028,null,1.006,1.03,"NORMAL",null,9,"WEEK 12","TREATMENT","2013-12-14T16:00",85],
["CDISCPILOT01","LB","CDISC017",196,"UROBIL","Urobilinogen","URINALYSIS","0",null,null,null,"0",0,null,null,null,"NORMAL",null,9,"WEEK 12","TREATMENT","2013-12-14T16:00",85],
["CDISCPILOT01","LB","CDISC017",239,"COLOR","Color","URINALYSIS","NORMAL",null,null,null,"NORMAL",null,null,null,null,"NORMAL",null,11,"WEEK 20","TREATMENT","2014-02-08T09:30",141],
["CDISCPILOT01","LB","CDISC017",247,"KETONES","Ketones","URINALYSIS","0",null,null,null,"0",0,null,null,null,"NORMAL",null,11,"WEEK 20","TREATMENT","2014-02-08T09:30",141],
["CDISCPILOT01","LB","CDISC017",254,"PH","pH","URINALYSIS","5",null,"5","8","5",5,null,5,8,"NORMAL",null,11,"WEEK 20","TREATMENT","2014-02-08T09:30",141],
["CDISCPILOT01","LB","CDISC017",259,"SPGRAV","Specific Gravity","URINALYSIS","1.028",null,"1.006","1.03","1.028",1.028,null,1.006,1.03,"NORMAL",null,11,"WEEK 20","TREATMENT","2014-02-08T09:30",141],
["CDISCPILOT01","LB","CDISC017",261,"UROBIL","Urobilinogen","URINALYSIS","0",null,null,null,"0",0,null,null,null,"NORMAL",null,11,"WEEK 20","TREATMENT","2014-02-08T09:30",141],
["CDISCPILOT01","LB","CDISC018",12,"COLOR","Color","URINALYSIS","NORMAL",null,null,null,"NORMAL",null,null,null,null,"NORMAL","Y",1,"SCREENING 1","SCREENING","2012-12-09T12:30",-8],
["CDISCPILOT01","LB","CDISC018",20,"KETONES","Ketones","URINALYSIS","0",null,null,null,"0",0,null,null,null,"NORMAL","Y",1,"SCREENING 1","SCREENING","2012-12-09T12:30",-8],
["CDISCPILOT01","LB","CDISC018",27,"PH","pH","URINALYSIS","6",null,"5","8","6",6,null,5,8,"NORMAL","Y",1,"SCREENING 1","SCREENING","2012-12-09T12:30",-8],
["CDISCPILOT01","LB","CDISC018",32,"SPGRAV","Specific Gravity","URINALYSIS","1.014",null,"1.006","1.03","1.014",1.014,null,1.006,1.03,"NORMAL","Y",1,"SCREENING 1","SCREENING","2012-12-09T12:30",-8],
["CDISCPILOT01","LB","CDISC018",33,"TSH","Thyrotropin","OTHER","1.4","mIU/L",".32","5","1.4",1.4,"mU/L",0.32,5,"NORMAL","Y",1,"SCREENING 1","SCREENING","2012-12-09T12:30",-8],
["CDISCPILOT01","LB","CDISC018",35,"UROBIL","Urobilinogen","URINALYSIS","0",null,null,null,"0",0,null,null,null,"NORMAL","Y",1,"SCREENING 1","SCREENING","2012-12-09T12:30",-8],
["CDISCPILOT01","LB","CDISC018",36,"VITB12","Vitamin B12","OTHER","887","ng/L","200","900","654.4286",654.4286,"pmol/L",148,664,"NORMAL","Y",1,"SCREENING 1","SCREENING","2012-12-09T12:30",-8],
["CDISCPILOT01","LB","CDISC018",49,"COLOR","Color","URINALYSIS","NORMAL",null,null,null,"NORMAL",null,null,null,null,"NORMAL",null,4,"WEEK 2","TREATMENT","2012-12-31T10:45",15],
["CDISCPILOT01","LB","CDISC018",57,"KETONES","Ketones","URINALYSIS","0",null,null,null,"0",0,null,null,null,"NORMAL",null,4,"WEEK 2","TREATMENT","2012-12-31T10:45",15],
["CDISCPILOT01","LB","CDISC018",64,"PH","pH","URINALYSIS","5",null,"5","8","5",5,null,5,8,"NORMAL",null,4,"WEEK 2","TREATMENT","2012-12-31T10:45",15],
["CDISCPILOT01","LB","CDISC018",69,"SPGRAV","Specific Gravity","URINALYSIS","1.015",null,"1.006","1.03","1.015",1.015,null,1.006,1.03,"NORMAL",null,4,"WEEK 2","TREATMENT","2012-12-31T10:45",15],
["CDISCPILOT01","LB","CDISC018",71,"UROBIL","Urobilinogen","URINALYSIS","0",null,null,null,"0",0,null,null,null,"NORMAL",null,4,"WEEK 2","TREATMENT","2012-12-31T10:45",15],
["CDISCPILOT01","LB","CDISC018",163,"COLOR","Color","URINALYSIS","NORMAL",null,null,null,"NORMAL",null,null,null,null,"NORMAL",null,8.01,"WEEK 8: UNSCHEDULED 01","TREATMENT","2013-02-18T12:30",64],
["CDISCPILOT01","LB","CDISC018",164,"KETONES","Ketones","URINALYSIS","0",null,null,null,"0",0,null,null,null,"NORMAL",null,8.01,"WEEK 8: UNSCHEDULED 01","TREATMENT","2013-02-18T12:30",64],
["CDISCPILOT01","LB","CDISC018",165,"PH","pH","URINALYSIS","5",null,"5","8","5",5,null,5,8,"NORMAL",null,8.01,"WEEK 8: UNSCHEDULED 01","TREATMENT","2013-02-18T12:30",64],
["CDISCPILOT01","LB","CDISC018",166,"SPGRAV","Specific Gravity","URINALYSIS","1.015",null,"1.006","1.03","1.015",1.015,null,1.006,1.03,"NORMAL",null,8.01,"WEEK 8: UNSCHEDULED 01","TREATMENT","2013-02-18T12:30",64],
["CDISCPILOT01","LB","CDISC018",167,"UROBIL","Urobilinogen","URINALYSIS","0",null,null,null,"0",0,null,null,null,"NORMAL",null,8.01,"WEEK 8: UNSCHEDULED 01","TREATMENT","2013-02-18T12:30",64]
]}}}
}