{"asOfDateTime": "2023-05-31T00:00:00", "columns": [{"dataType": "integer", "itemOID": "ITEMGROUPDATASEQ", "label": "Record Identifier", "name": "ITEMGROUPDATASEQ"}, {"dataType": "string", "itemOID": "IT.DM.STUDYID", "keySequence": 1, "label": "Study Identifier", "length": 12, "name": "STUDYID"}, {"dataType": "string", "itemOID": "IT.DM.DOMAIN", "label": "Domain Abbreviation", "length": 2, "name": "DOMAIN"}, {"dataType": "string", "itemOID": "IT.DM.USUBJID", "keySequence": 2, "label": "Unique Subject Identifier", "length": 8, "name": "USUBJID"}, {"dataType": "string", "itemOID": "IT.DM.SUBJID", "label": "Subject Identifier for the Study", "length": 4, "name": "SUBJID"}, {"dataType": "string", "itemOID": "IT.DM.RFSTDTC", "label": "Subject Reference Start Date/Time", "name": "RFSTDTC"}, {"dataType": "string", "itemOID": "IT.DM.RFENDTC", "label": "Subject Reference End Date/Time", "name": "RFENDTC"}, {"dataType": "string", "itemOID": "IT.DM.RFXSTDTC", "label": "Date/Time of First Study Treatment", "name": "RFXSTDTC"}, {"dataType": "string", "itemOID": "IT.DM.RFXENDTC", "label": "Date/Time of Last Study Treatment", "name": "RFXENDTC"}, {"dataType": "string", "itemOID": "IT.DM.RFICDTC", "label": "Date/Time of Informed Consent", "name": "RFICDTC"}, {"dataType": "string", "itemOID": "IT.DM.RFPENDTC", "label": "Date/Time of End of Participation", "name": "RFPENDTC"}, {"dataType": "string", "itemOID": "IT.DM.DTHDTC", "label": "Date/Time of Death", "name": "DTHDTC"}, {"dataType": "string", "itemOID": "IT.DM.DTHFL", "label": "Subject Death Flag", "length": 1, "name": "DTHFL"}, {"dataType": "string", "itemOID": "IT.DM.SITEID", "label": "Study Site Identifier", "length": 3, "name": "SITEID"}, {"dataType": "string", "itemOID": "IT.DM.BRTHDTC", "label": "Date/Time of Birth", "name": "BRTHDTC"}, {"dataType": "integer", "itemOID": "IT.DM.AGE", "label": "Age", "length": 8, "name": "AGE"}, {"dataType": "string", "itemOID": "IT.DM.AGEU", "label": "Age Units", "length": 5, "name": "AGEU"}, {"dataType": "string", "itemOID": "IT.DM.SEX", "label": "Sex", "length": 1, "name": "SEX"}, {"dataType": "string", "itemOID": "IT.DM.RACE", "label": "Race", "length": 41, "name": "RACE"}, {"dataType": "string", "itemOID": "IT.DM.ETHNIC", "label": "Ethnicity", "length": 22, "name": "ETHNIC"}, {"dataType": "string", "itemOID": "IT.DM.ARMCD", "label": "Planned Arm Code", "length": 8, "name": "ARMCD"}, {"dataType": "string", "itemOID": "IT.DM.ARM", "label": "Description of Planned Arm", "length": 28, "name": "ARM"}, {"dataType": "string", "itemOID": "IT.DM.ACTARMCD", "label": "Actual Arm Code", "length": 8, "name": "ACTARMCD"}, {"dataType": "string", "itemOID": "IT.DM.ACTARM", "label": "Description of Actual Arm", "length": 28, "name": "ACTARM"}, {"dataType": "string", "itemOID": "IT.DM.ARMNRS", "label": "Reason Arm and/or Actual Arm is Null", "length": 14, "name": "ARMNRS"}, {"dataType": "string", "itemOID": "IT.DM.ACTARMUD", "label": "Description of Unplanned Actual Arm", "length": 200, "name": "ACTARMUD"}, {"dataType": "string", "itemOID": "IT.DM.COUNTRY", "label": "Country", "length": 3, "name": "COUNTRY"}], "creationDateTime": "2023-06-28T15:38:43", "datasetJSONVersion": "1.1.0", "fileOID": "www.cdisc.org/StudyMSGv2/1/Define-XML_2.1.0/2023-06-28/dm", "label": "Demographics", "name": "DM", "originator": "CDISC SDTM MSG Team", "records": 18, "sourceSystem": "Sponsor System", "sourceSystemVersion": "1.0", "metaDataRef": "https://metadata.location.org/CDISCPILOT01/define.xml", "metaDataVersionOID": "MDV.MSGv2.0.SDTMIG.3.3.SDTM.1.7", "studyOID": "cdisc.com/CDISCPILOT01", "itemGroupOID": "IG.DM", "rows": [[1, "CDISCPILOT01", "DM", "CDISC001", "1115", "2012-11-30", "2013-01-23", "2012-11-30", "2013-01-23", "2012-11-23", "2013-05-20", "", "", "701", "1928", 84, "YEARS", "M", "WHITE", "NOT HISPANIC OR LATINO", "ZAN_LOW", "Zanomaline Low Dose (54 mg)", "ZAN_LOW", "Zanomaline Low Dose (54 mg)", "", "", "USA"], [2, "CDISCPILOT01", "DM", "CDISC002", "1211", "2012-11-15", "2013-01-14", "2012-11-15", "2013-01-12", "2012-10-30", "2013-01-14", "2013-01-14", "Y", "701", "1936", 76, "YEARS", "F", "WHITE", "NOT HISPANIC OR LATINO", "ZAN_LOW", "Zanomaline Low Dose (54 mg)", "ZAN_LOW", "Zanomaline Low Dose (54 mg)", "", "", "USA"], [3, "CDISCPILOT01", "DM", "CDISC003", "1302", "2013-08-29", "2013-11-05", "2013-08-29", "2013-11-05", "2013-08-20", "2014-02-13", "", "", "701", "1951", 61, "YEARS", "M", "WHITE", "NOT HISPANIC OR LATINO", "ZAN_HIGH", "Zanomaline High Dose (81 mg)", "ZAN_HIGH", "Zanomaline High Dose (81 mg)", "", "", "USA"], [4, "CDISCPILOT01", "DM", "CDISC004", "1345", "2013-10-08", "2014-03-18", "2013-10-08", "2014-03-18", "2013-10-01", "2014-03-18", "", "", "701", "1950", 63, "YEARS", "F", "WHITE", "NOT HISPANIC OR LATINO", "PLACEBO", "Placebo", "PLACEBO", "Placebo", "", "", "USA"], [5, "CDISCPILOT01", "DM", "CDISC005", "1383", "2013-02-04", "2013-08-06", "2013-02-04", "2013-08-06", "2013-01-22", "2013-08-06", "", "", "701", "1941", 72, "YEARS", "F", "WHITE", "NOT HISPANIC OR LATINO", "ZAN_HIGH", "Zanomaline High Dose (81 mg)", "ZAN_HIGH", "Zanomaline High Dose (81 mg)", "", "", "USA"], [6, "CDISCPILOT01", "DM", "CDISC006", "1429", "2013-03-19", "2013-04-30", "2013-03-19", "2013-04-30", "2013-02-25", "2013-04-30", "", "", "701", "1929", 84, "YEARS", "F", "WHITE", "NOT HISPANIC OR LATINO", "ZAN_LOW", "Zanomaline Low Dose (54 mg)", "ZAN_LOW", "Zanomaline Low Dose (54 mg)", "", "", "USA"], [7, "CDISCPILOT01", "DM", "CDISC007", "1444", "2013-01-05", "2013-02-13", "2013-01-05", "2013-02-12", "2012-12-31", "2013-06-20", "", "", "701", "1949", 63, "YEARS", "M", "WHITE", "HISPANIC OR LATINO", "ZAN_HIGH", "Zanomaline High Dose (81 mg)", "ZAN_HIGH", "Zanomaline High Dose (81 mg)", "", "", "USA"], [8, "CDISCPILOT01", "DM", "CDISC008", "1445", "2014-05-11", "2014-11-01", "2014-05-11", "2014-11-01", "2014-05-01", "2014-11-01", "2014-11-01", "Y", "704", "1939", 75, "YEARS", "M", "MULTIPLE", "NOT HISPANIC OR LATINO", "PLACEBO", "Placebo", "PLACEBO", "Placebo", "", "", "USA"], [9, "CDISCPILOT01", "DM", "CDISC009", "1087", "2012-10-22", "2013-04-28", "2012-10-22", "2013-04-28", "2012-10-06", "2013-04-28", "", "", "708", "1938", 74, "YEARS", "F", "WHITE", "NOT HISPANIC OR LATINO", "PLACEBO", "Placebo", "PLACEBO", "Placebo", "", "", "USA"], [10, "CDISCPILOT01", "DM", "CDISC010", "1236", "2013-09-21", "2013-09-26", "2013-09-21", "2013-09-21", "2013-09-08", "2013-09-26", "", "", "708", "1927", 86, "YEARS", "F", "WHITE", "NOT HISPANIC OR LATINO", "ZAN_HIGH", "Zanomaline High Dose (81 mg)", "ZAN_HIGH", "Zanomaline High Dose (81 mg)", "", "", "USA"], [11, "CDISCPILOT01", "DM", "CDISC011", "1336", "2012-12-07", "2013-06-05", "2012-12-07", "2013-06-05", "2012-11-21", "2013-07-05", "", "", "708", "1939", 73, "YEARS", "M", "WHITE", "NOT HISPANIC OR LATINO", "ZAN_HIGH", "Zanomaline High Dose (81 mg)", "ZAN_HIGH", "Zanomaline High Dose (81 mg)", "", "", "USA"], [12, "CDISCPILOT01", "DM", "CDISC012", "1378", "2013-09-03", "2014-01-28", "2013-09-03", "2014-01-28", "2013-08-24", "2014-01-28", "", "", "708", "1946", 67, "YEARS", "M", "BLACK OR AFRICAN AMERICAN", "NOT HISPANIC OR LATINO", "PLACEBO", "Placebo", "PLACEBO", "Placebo", "", "", "USA"], [13, "CDISCPILOT01", "DM", "CDISC013", "1083", "2013-07-22", "2013-08-03", "2013-07-22", "2013-08-01", "2013-07-09", "2013-08-03", "2013-08-03", "Y", "710", "1924", 89, "YEARS", "F", "WHITE", "NOT HISPANIC OR LATINO", "PLACEBO", "Placebo", "PLACEBO", "Placebo", "", "", "USA"], [14, "CDISCPILOT01", "DM", "CDISC014", "1012", "2013-04-03", "2013-05-02", "2013-04-03", "2013-04-29", "2013-03-20", "2013-09-18", "", "", "711", "1945", 67, "YEARS", "F", "WHITE", "NOT HISPANIC OR LATINO", "ZAN_HIGH", "Zanomaline High Dose (81 mg)", "ZAN_HIGH", "Zanomaline High Dose (81 mg)", "", "", "USA"], [15, "CDISCPILOT01", "DM", "CDISC015", "1022", "", "", "", "", "2014-03-17", "2014-03-17", "", "", "711", "1928", 86, "YEARS", "F", "WHITE", "NOT HISPANIC OR LATINO", "", "", "", "", "SCREEN FAILURE", "", "USA"], [16, "CDISCPILOT01", "DM", "CDISC016", "1143", "2013-04-03", "2013-06-01", "2013-04-03", "2013-05-30", "2013-03-30", "2013-09-22", "", "", "711", "1936", 76, "YEARS", "F", "WHITE", "NOT HISPANIC OR LATINO", "ZAN_LOW", "Zanomaline Low Dose (54 mg)", "ZAN_LOW", "Zanomaline Low Dose (54 mg)", "", "", "USA"], [17, "CDISCPILOT01", "DM", "CDISC017", "1250", "2013-09-21", "2014-02-08", "2013-09-21", "2014-01-31", "2013-08-21", "2014-03-08", "", "", "718", "1931", 82, "YEARS", "F", "WHITE", "HISPANIC OR LATINO", "ZAN_LOW", "Zanomaline Low Dose (54 mg)", "ZAN_LOW", "Zanomaline Low Dose (54 mg)", "", "", "USA"], [18, "CDISCPILOT01", "DM", "CDISC018", "1427", "2012-12-17", "2013-02-18", "2012-12-17", "2013-02-11", "2012-12-13", "2013-06-03", "", "", "718", "1938", 74, "YEARS", "F", "BLACK OR AFRICAN AMERICAN", "NOT HISPANIC OR LATINO", "ZAN_HIGH", "Zanomaline High Dose (81 mg)", "ZAN_HIGH", "Zanomaline High Dose (81 mg)", "", "", "USA"]]}