{"asOfDateTime": "2023-05-31T00:00:00", "columns": [{"dataType": "integer", "itemOID": "ITEMGROUPDATASEQ", "label": "Record Identifier", "name": "ITEMGROUPDATASEQ"}, {"dataType": "string", "itemOID": "IT.MH.STUDYID", "keySequence": 1, "label": "Study Identifier", "length": 12, "name": "STUDYID"}, {"dataType": "string", "itemOID": "IT.MH.DOMAIN", "label": "Domain Abbreviation", "length": 2, "name": "DOMAIN"}, {"dataType": "string", "itemOID": "IT.MH.USUBJID", "keySequence": 2, "label": "Unique Subject Identifier", "length": 8, "name": "USUBJID"}, {"dataType": "integer", "itemOID": "IT.MH.MHSEQ", "label": "Sequence Number", "length": 3, "name": "MHSEQ"}, {"dataType": "string", "itemOID": "IT.MH.MHTERM", "keySequence": 3, "label": "Reported Term for the Medical History", "length": 19, "name": "MHTERM"}, {"dataType": "string", "itemOID": "IT.MH.MHEVDTYP", "label": "Medical History Event Date Type", "length": 13, "name": "MHEVDTYP"}, {"dataType": "string", "itemOID": "IT.MH.MHSTDTC", "keySequence": 4, "label": "Start Date/Time of Medical History Event", "name": "MHSTDTC"}, {"dataType": "integer", "itemOID": "IT.MH.MHSTDY", "label": "Study Day of Start of Observation", "length": 8, "name": "MHSTDY"}], "creationDateTime": "2023-06-28T15:38:43", "datasetJSONVersion": "1.1.0", "fileOID": "www.cdisc.org/StudyMSGv2/1/Define-XML_2.1.0/2023-06-28/mh", "label": "Medical History", "name": "MH", "originator": "CDISC SDTM MSG Team", "records": 17, "sourceSystem": "Sponsor System", "sourceSystemVersion": "1.0", "metaDataRef": "https://metadata.location.org/CDISCPILOT01/define.xml", "metaDataVersionOID": "MDV.MSGv2.0.SDTMIG.3.3.SDTM.1.7", "studyOID": "cdisc.com/CDISCPILOT01", "itemGroupOID": "IG.MH", "rows": [[1, "CDISCPILOT01", "MH", "CDISC001", 1, "ALZHEIMER'S DISEASE", "SYMPTOM ONSET", "2004-05-28", -3108], [2, "CDISCPILOT01", "MH", "CDISC002", 1, "ALZHEIMER'S DISEASE", "SYMPTOM ONSET", "2010-03-19", -972], [3, "CDISCPILOT01", "MH", "CDISC003", 1, "ALZHEIMER'S DISEASE", "SYMPTOM ONSET", "2007-02-09", -2393], [4, "CDISCPILOT01", "MH", "CDISC004", 1, "ALZHEIMER'S DISEASE", "SYMPTOM ONSET", "2010-11-05", -1068], [5, "CDISCPILOT01", "MH", "CDISC005", 1, "ALZHEIMER'S DISEASE", "SYMPTOM ONSET", "2006-08-20", -2360], [6, "CDISCPILOT01", "MH", "CDISC006", 1, "ALZHEIMER'S DISEASE", "SYMPTOM ONSET", "2008-06-17", -1736], [7, "CDISCPILOT01", "MH", "CDISC007", 1, "ALZHEIMER'S DISEASE", "SYMPTOM ONSET", "2008-05-21", -1690], [8, "CDISCPILOT01", "MH", "CDISC008", 1, "ALZHEIMER'S DISEASE", "SYMPTOM ONSET", "2012-11-11", -546], [9, "CDISCPILOT01", "MH", "CDISC009", 1, "ALZHEIMER'S DISEASE", "SYMPTOM ONSET", "2008-09-02", -1511], [10, "CDISCPILOT01", "MH", "CDISC010", 1, "ALZHEIMER'S DISEASE", "SYMPTOM ONSET", "2012-09-08", -378], [11, "CDISCPILOT01", "MH", "CDISC011", 1, "ALZHEIMER'S DISEASE", "SYMPTOM ONSET", "2002-12-01", -3659], [12, "CDISCPILOT01", "MH", "CDISC012", 1, "ALZHEIMER'S DISEASE", "SYMPTOM ONSET", "2009-03-16", -1632], [13, "CDISCPILOT01", "MH", "CDISC013", 1, "ALZHEIMER'S DISEASE", "SYMPTOM ONSET", "2011-07-19", -734], [14, "CDISCPILOT01", "MH", "CDISC014", 1, "ALZHEIMER'S DISEASE", "SYMPTOM ONSET", "2011-07-25", -618], [15, "CDISCPILOT01", "MH", "CDISC016", 1, "ALZHEIMER'S DISEASE", "SYMPTOM ONSET", "2011-04-29", -705], [16, "CDISCPILOT01", "MH", "CDISC017", 1, "ALZHEIMER'S DISEASE", "SYMPTOM ONSET", "2008-08-20", -1858], [17, "CDISCPILOT01", "MH", "CDISC018", 1, "ALZHEIMER'S DISEASE", "SYMPTOM ONSET", "2010-05-03", -959]]}