{"datasetJSONCreationDateTime": "2024-11-11T15:09:17", "datasetJSONVersion": "1.1.0", "fileOID": "www.cdisc.org/StudyMSGv2/1/Define-XML_2.1.0/2024-11-11/qsph", "dbLastModifiedDateTime": "2020-08-21T09:14:28", "originator": "CDISC SDTM MSG Team", "sourceSystem": {"name": "SAS on X64_10PRO", "version": "9.0401M7"}, "studyOID": "cdisc.com/CDISCPILOT01", "metaDataVersionOID": "MDV.MSGv2.0.SDTMIG.3.3.SDTM.1.7", "metaDataRef": "define.xml", "itemGroupOID": "IG.QSPH", "records": 330, "name": "QSPH", "label": "Questionnaires (PHQ-9)", "columns": [{"itemOID": "IT.QSPH.STUDYID", "name": "STUDYID", "label": "Study Identifier", "dataType": "string", "length": 12, "keySequence": 1}, {"itemOID": "IT.QSPH.DOMAIN", "name": "DOMAIN", "label": "Domain Abbreviation", "dataType": "string", "length": 4}, {"itemOID": "IT.QSPH.USUBJID", "name": "USUBJID", "label": "Unique Subject Identifier", "dataType": "string", "length": 8, "keySequence": 2}, {"itemOID": "IT.QSPH.QSSEQ", "name": "QSSEQ", "label": "Sequence Number", "dataType": "integer"}, {"itemOID": "IT.QSPH.QSTESTCD", "name": "QSTESTCD", "label": "Question Short Name", "dataType": "string", "length": 7, "keySequence": 3}, {"itemOID": "IT.QSPH.QSTEST", "name": "QSTEST", "label": "Question Name", "dataType": "string", "length": 40}, {"itemOID": "IT.QSPH.QSCAT", "name": "QSCAT", "label": "Category of Question", "dataType": "string", "length": 5}, {"itemOID": "IT.QSPH.QSORRES", "name": "QSORRES", "label": "Finding in Original Units", "dataType": "string", "length": 23}, {"itemOID": "IT.QSPH.QSSTRESC", "name": "QSSTRESC", "label": "Character Result/Finding in Std Format", "dataType": "string", "length": 20}, {"itemOID": "IT.QSPH.QSSTRESN", "name": "QSSTRESN", "label": "Numeric Finding in Standard Units", "dataType": "integer"}, {"itemOID": "IT.QSPH.QSLOBXFL", "name": "QSLOBXFL", "label": "Last Observation Before Exposure Flag", "dataType": "string", "length": 1}, {"itemOID": "IT.QSPH.VISITNUM", "name": "VISITNUM", "label": "Visit Number", "dataType": "float", "keySequence": 4}, {"itemOID": "IT.QSPH.VISIT", "name": "VISIT", "label": "Visit Name", "dataType": "string", "length": 200}, {"itemOID": "IT.QSPH.EPOCH", "name": "EPOCH", "label": "Epoch", "dataType": "string", "length": 9}, {"itemOID": "IT.QSPH.QSDTC", "name": "QSDTC", "label": "Date/Time of Finding", "dataType": "date"}, {"itemOID": "IT.QSPH.QSDY", "name": "QSDY", "label": "Study Day of Finding", "dataType": "integer"}, {"itemOID": "IT.QSPH.QSEVLINT", "name": "QSEVLINT", "label": "Evaluation Interval", "dataType": "string"}]}
["CDISCPILOT01", "QS", "CDISC001", 1, "PHQ0101", "PHQ01-Little Interest/Pleasure in Things", "PHQ-9", "Several days", "1", 1, "Y", 3, "BASELINE", "SCREENING", "2012-11-30", 1, "-P2W"]
["CDISCPILOT01", "QS", "CDISC001", 2, "PHQ0102", "PHQ01-Feeling Down Depressed or Hopeless", "PHQ-9", "Not at all", "0", 0, "Y", 3, "BASELINE", "SCREENING", "2012-11-30", 1, "-P2W"]
["CDISCPILOT01", "QS", "CDISC001", 3, "PHQ0103", "PHQ01-Trouble Falling or Staying Asleep", "PHQ-9", "Several days", "1", 1, "Y", 3, "BASELINE", "SCREENING", "2012-11-30", 1, "-P2W"]
["CDISCPILOT01", "QS", "CDISC001", 4, "PHQ0104", "PHQ01-Feeling Tired or Little Energy", "PHQ-9", "Not at all", "0", 0, "Y", 3, "BASELINE", "SCREENING", "2012-11-30", 1, "-P2W"]
["CDISCPILOT01", "QS", "CDISC001", 5, "PHQ0105", "PHQ01-Poor Appetite or Overeating", "PHQ-9", "Not at all", "0", 0, "Y", 3, "BASELINE", "SCREENING", "2012-11-30", 1, "-P2W"]
["CDISCPILOT01", "QS", "CDISC001", 6, "PHQ0106", "PHQ01-Feeling Bad About Yourself", "PHQ-9", "Several days", "1", 1, "Y", 3, "BASELINE", "SCREENING", "2012-11-30", 1, "-P2W"]
["CDISCPILOT01", "QS", "CDISC001", 7, "PHQ0107", "PHQ01-Trouble Concentrating on Things", "PHQ-9", "More than half the days", "2", 2, "Y", 3, "BASELINE", "SCREENING", "2012-11-30", 1, "-P2W"]
["CDISCPILOT01", "QS", "CDISC001", 8, "PHQ0108", "PHQ01-Moving Slowly or Fidgety/Restless", "PHQ-9", "Not at all", "0", 0, "Y", 3, "BASELINE", "SCREENING", "2012-11-30", 1, "-P2W"]
["CDISCPILOT01", "QS", "CDISC001", 9, "PHQ0109", "PHQ01-Thoughts You Be Better Off Dead", "PHQ-9", "Not at all", "0", 0, "Y", 3, "BASELINE", "SCREENING", "2012-11-30", 1, "-P2W"]
["CDISCPILOT01", "QS", "CDISC001", 10, "PHQ0110", "PHQ01-Difficult to Work/Take Care Things", "PHQ-9", "Not difficult at all", "Not difficult at all", null, "Y", 3, "BASELINE", "SCREENING", "2012-11-30", 1, "-P2W"]
["CDISCPILOT01", "QS", "CDISC001", 11, "PHQ0111", "PHQ01-Total Score", "PHQ-9", "5", "5", 5, "Y", 3, "BASELINE", "SCREENING", "2012-11-30", 1, "-P2W"]
["CDISCPILOT01", "QS", "CDISC001", 17, "PHQ0101", "PHQ01-Little Interest/Pleasure in Things", "PHQ-9", "Not at all", "0", 0, "", 201, "EARLY DISCONTINUATION RETRIEVAL", "TREATMENT", "2013-05-20", 172, "-P2W"]
["CDISCPILOT01", "QS", "CDISC001", 18, "PHQ0102", "PHQ01-Feeling Down Depressed or Hopeless", "PHQ-9", "Not at all", "0", 0, "", 201, "EARLY DISCONTINUATION RETRIEVAL", "TREATMENT", "2013-05-20", 172, "-P2W"]
["CDISCPILOT01", "QS", "CDISC001", 19, "PHQ0103", "PHQ01-Trouble Falling or Staying Asleep", "PHQ-9", "Several days", "1", 1, "", 201, "EARLY DISCONTINUATION RETRIEVAL", "TREATMENT", "2013-05-20", 172, "-P2W"]
["CDISCPILOT01", "QS", "CDISC001", 20, "PHQ0104", "PHQ01-Feeling Tired or Little Energy", "PHQ-9", "Several days", "1", 1, "", 201, "EARLY DISCONTINUATION RETRIEVAL", "TREATMENT", "2013-05-20", 172, "-P2W"]
["CDISCPILOT01", "QS", "CDISC001", 21, "PHQ0105", "PHQ01-Poor Appetite or Overeating", "PHQ-9", "Not at all", "0", 0, "", 201, "EARLY DISCONTINUATION RETRIEVAL", "TREATMENT", "2013-05-20", 172, "-P2W"]
["CDISCPILOT01", "QS", "CDISC001", 22, "PHQ0106", "PHQ01-Feeling Bad About Yourself", "PHQ-9", "Several days", "1", 1, "", 201, "EARLY DISCONTINUATION RETRIEVAL", "TREATMENT", "2013-05-20", 172, "-P2W"]
["CDISCPILOT01", "QS", "CDISC001", 23, "PHQ0107", "PHQ01-Trouble Concentrating on Things", "PHQ-9", "More than half the days", "2", 2, "", 201, "EARLY DISCONTINUATION RETRIEVAL", "TREATMENT", "2013-05-20", 172, "-P2W"]
["CDISCPILOT01", "QS", "CDISC001", 24, "PHQ0108", "PHQ01-Moving Slowly or Fidgety/Restless", "PHQ-9", "Not at all", "0", 0, "", 201, "EARLY DISCONTINUATION RETRIEVAL", "TREATMENT", "2013-05-20", 172, "-P2W"]
["CDISCPILOT01", "QS", "CDISC001", 25, "PHQ0109", "PHQ01-Thoughts You Be Better Off Dead", "PHQ-9", "Not at all", "0", 0, "", 201, "EARLY DISCONTINUATION RETRIEVAL", "TREATMENT", "2013-05-20", 172, "-P2W"]
["CDISCPILOT01", "QS", "CDISC001", 26, "PHQ0110", "PHQ01-Difficult to Work/Take Care Things", "PHQ-9", "Not difficult at all", "Not difficult at all", null, "", 201, "EARLY DISCONTINUATION RETRIEVAL", "TREATMENT", "2013-05-20", 172, "-P2W"]
["CDISCPILOT01", "QS", "CDISC001", 27, "PHQ0111", "PHQ01-Total Score", "PHQ-9", "5", "5", 5, "", 201, "EARLY DISCONTINUATION RETRIEVAL", "TREATMENT", "2013-05-20", 172, "-P2W"]
["CDISCPILOT01", "QS", "CDISC002", 1, "PHQ0101", "PHQ01-Little Interest/Pleasure in Things", "PHQ-9", "More than half the days", "2", 2, "Y", 3, "BASELINE", "SCREENING", "2012-11-15", 1, "-P2W"]
["CDISCPILOT01", "QS", "CDISC002", 2, "PHQ0102", "PHQ01-Feeling Down Depressed or Hopeless", "PHQ-9", "More than half the days", "2", 2, "Y", 3, "BASELINE", "SCREENING", "2012-11-15", 1, "-P2W"]
["CDISCPILOT01", "QS", "CDISC002", 3, "PHQ0103", "PHQ01-Trouble Falling or Staying Asleep", "PHQ-9", "More than half the days", "2", 2, "Y", 3, "BASELINE", "SCREENING", "2012-11-15", 1, "-P2W"]
["CDISCPILOT01", "QS", "CDISC002", 4, "PHQ0104", "PHQ01-Feeling Tired or Little Energy", "PHQ-9", "More than half the days", "2", 2, "Y", 3, "BASELINE", "SCREENING", "2012-11-15", 1, "-P2W"]
["CDISCPILOT01", "QS", "CDISC002", 5, "PHQ0105", "PHQ01-Poor Appetite or Overeating", "PHQ-9", "More than half the days", "2", 2, "Y", 3, "BASELINE", "SCREENING", "2012-11-15", 1, "-P2W"]
["CDISCPILOT01", "QS", "CDISC002", 6, "PHQ0106", "PHQ01-Feeling Bad About Yourself", "PHQ-9", "Nearly every day", "3", 3, "Y", 3, "BASELINE", "SCREENING", "2012-11-15", 1, "-P2W"]
["CDISCPILOT01", "QS", "CDISC002", 7, "PHQ0107", "PHQ01-Trouble Concentrating on Things", "PHQ-9", "More than half the days", "2", 2, "Y", 3, "BASELINE", "SCREENING", "2012-11-15", 1, "-P2W"]
["CDISCPILOT01", "QS", "CDISC002", 8, "PHQ0108", "PHQ01-Moving Slowly or Fidgety/Restless", "PHQ-9", "Nearly every day", "3", 3, "Y", 3, "BASELINE", "SCREENING", "2012-11-15", 1, "-P2W"]
["CDISCPILOT01", "QS", "CDISC002", 9, "PHQ0109", "PHQ01-Thoughts You Be Better Off Dead", "PHQ-9", "Nearly every day", "3", 3, "Y", 3, "BASELINE", "SCREENING", "2012-11-15", 1, "-P2W"]
["CDISCPILOT01", "QS", "CDISC002", 10, "PHQ0110", "PHQ01-Difficult to Work/Take Care Things", "PHQ-9", "Somewhat difficult", "Somewhat difficult", null, "Y", 3, "BASELINE", "SCREENING", "2012-11-15", 1, "-P2W"]
["CDISCPILOT01", "QS", "CDISC002", 11, "PHQ0111", "PHQ01-Total Score", "PHQ-9", "21", "21", 21, "Y", 3, "BASELINE", "SCREENING", "2012-11-15", 1, "-P2W"]
["CDISCPILOT01", "QS", "CDISC003", 1, "PHQ0101", "PHQ01-Little Interest/Pleasure in Things", "PHQ-9", "Not at all", "0", 0, "Y", 3, "BASELINE", "SCREENING", "2013-08-29", 1, "-P2W"]
["CDISCPILOT01", "QS", "CDISC003", 2, "PHQ0102", "PHQ01-Feeling Down Depressed or Hopeless", "PHQ-9", "Not at all", "0", 0, "Y", 3, "BASELINE", "SCREENING", "2013-08-29", 1, "-P2W"]
["CDISCPILOT01", "QS", "CDISC003", 3, "PHQ0103", "PHQ01-Trouble Falling or Staying Asleep", "PHQ-9", "Not at all", "0", 0, "Y", 3, "BASELINE", "SCREENING", "2013-08-29", 1, "-P2W"]
["CDISCPILOT01", "QS", "CDISC003", 4, "PHQ0104", "PHQ01-Feeling Tired or Little Energy", "PHQ-9", "Not at all", "0", 0, "Y", 3, "BASELINE", "SCREENING", "2013-08-29", 1, "-P2W"]
["CDISCPILOT01", "QS", "CDISC003", 5, "PHQ0105", "PHQ01-Poor Appetite or Overeating", "PHQ-9", "Not at all", "0", 0, "Y", 3, "BASELINE", "SCREENING", "2013-08-29", 1, "-P2W"]
["CDISCPILOT01", "QS", "CDISC003", 6, "PHQ0106", "PHQ01-Feeling Bad About Yourself", "PHQ-9", "Not at all", "0", 0, "Y", 3, "BASELINE", "SCREENING", "2013-08-29", 1, "-P2W"]
["CDISCPILOT01", "QS", "CDISC003", 7, "PHQ0107", "PHQ01-Trouble Concentrating on Things", "PHQ-9", "Several days", "1", 1, "Y", 3, "BASELINE", "SCREENING", "2013-08-29", 1, "-P2W"]
["CDISCPILOT01", "QS", "CDISC003", 8, "PHQ0108", "PHQ01-Moving Slowly or Fidgety/Restless", "PHQ-9", "Not at all", "0", 0, "Y", 3, "BASELINE", "SCREENING", "2013-08-29", 1, "-P2W"]
["CDISCPILOT01", "QS", "CDISC003", 9, "PHQ0109", "PHQ01-Thoughts You Be Better Off Dead", "PHQ-9", "Several days", "1", 1, "Y", 3, "BASELINE", "SCREENING", "2013-08-29", 1, "-P2W"]
["CDISCPILOT01", "QS", "CDISC003", 10, "PHQ0110", "PHQ01-Difficult to Work/Take Care Things", "PHQ-9", "Not difficult at all", "Not difficult at all", null, "Y", 3, "BASELINE", "SCREENING", "2013-08-29", 1, "-P2W"]
["CDISCPILOT01", "QS", "CDISC003", 11, "PHQ0111", "PHQ01-Total Score", "PHQ-9", "2", "2", 2, "Y", 3, "BASELINE", "SCREENING", "2013-08-29", 1, "-P2W"]
["CDISCPILOT01", "QS", "CDISC003", 17, "PHQ0101", "PHQ01-Little Interest/Pleasure in Things", "PHQ-9", "Not at all", "0", 0, "", 9, "WEEK 12", "TREATMENT", "2013-11-05", 69, "-P2W"]
["CDISCPILOT01", "QS", "CDISC003", 18, "PHQ0102", "PHQ01-Feeling Down Depressed or Hopeless", "PHQ-9", "Not at all", "0", 0, "", 9, "WEEK 12", "TREATMENT", "2013-11-05", 69, "-P2W"]
["CDISCPILOT01", "QS", "CDISC003", 19, "PHQ0103", "PHQ01-Trouble Falling or Staying Asleep", "PHQ-9", "Not at all", "0", 0, "", 9, "WEEK 12", "TREATMENT", "2013-11-05", 69, "-P2W"]
["CDISCPILOT01", "QS", "CDISC003", 20, "PHQ0104", "PHQ01-Feeling Tired or Little Energy", "PHQ-9", "Not at all", "0", 0, "", 9, "WEEK 12", "TREATMENT", "2013-11-05", 69, "-P2W"]
["CDISCPILOT01", "QS", "CDISC003", 21, "PHQ0105", "PHQ01-Poor Appetite or Overeating", "PHQ-9", "Not at all", "0", 0, "", 9, "WEEK 12", "TREATMENT", "2013-11-05", 69, "-P2W"]
["CDISCPILOT01", "QS", "CDISC003", 22, "PHQ0106", "PHQ01-Feeling Bad About Yourself", "PHQ-9", "Several days", "1", 1, "", 9, "WEEK 12", "TREATMENT", "2013-11-05", 69, "-P2W"]
["CDISCPILOT01", "QS", "CDISC003", 23, "PHQ0107", "PHQ01-Trouble Concentrating on Things", "PHQ-9", "Not at all", "0", 0, "", 9, "WEEK 12", "TREATMENT", "2013-11-05", 69, "-P2W"]
["CDISCPILOT01", "QS", "CDISC003", 24, "PHQ0108", "PHQ01-Moving Slowly or Fidgety/Restless", "PHQ-9", "Not at all", "0", 0, "", 9, "WEEK 12", "TREATMENT", "2013-11-05", 69, "-P2W"]
["CDISCPILOT01", "QS", "CDISC003", 25, "PHQ0109", "PHQ01-Thoughts You Be Better Off Dead", "PHQ-9", "Several days", "1", 1, "", 9, "WEEK 12", "TREATMENT", "2013-11-05", 69, "-P2W"]
["CDISCPILOT01", "QS", "CDISC003", 26, "PHQ0110", "PHQ01-Difficult to Work/Take Care Things", "PHQ-9", "Not difficult at all", "Not difficult at all", null, "", 9, "WEEK 12", "TREATMENT", "2013-11-05", 69, "-P2W"]
["CDISCPILOT01", "QS", "CDISC003", 27, "PHQ0111", "PHQ01-Total Score", "PHQ-9", "2", "2", 2, "", 9, "WEEK 12", "TREATMENT", "2013-11-05", 69, "-P2W"]
["CDISCPILOT01", "QS", "CDISC003", 33, "PHQ0101", "PHQ01-Little Interest/Pleasure in Things", "PHQ-9", "Not at all", "0", 0, "", 201, "EARLY DISCONTINUATION RETRIEVAL", "TREATMENT", "2014-02-13", 169, "-P2W"]
["CDISCPILOT01", "QS", "CDISC003", 34, "PHQ0102", "PHQ01-Feeling Down Depressed or Hopeless", "PHQ-9", "Not at all", "0", 0, "", 201, "EARLY DISCONTINUATION RETRIEVAL", "TREATMENT", "2014-02-13", 169, "-P2W"]
["CDISCPILOT01", "QS", "CDISC003", 35, "PHQ0103", "PHQ01-Trouble Falling or Staying Asleep", "PHQ-9", "Not at all", "0", 0, "", 201, "EARLY DISCONTINUATION RETRIEVAL", "TREATMENT", "2014-02-13", 169, "-P2W"]
["CDISCPILOT01", "QS", "CDISC003", 36, "PHQ0104", "PHQ01-Feeling Tired or Little Energy", "PHQ-9", "Not at all", "0", 0, "", 201, "EARLY DISCONTINUATION RETRIEVAL", "TREATMENT", "2014-02-13", 169, "-P2W"]
["CDISCPILOT01", "QS", "CDISC003", 37, "PHQ0105", "PHQ01-Poor Appetite or Overeating", "PHQ-9", "Several days", "1", 1, "", 201, "EARLY DISCONTINUATION RETRIEVAL", "TREATMENT", "2014-02-13", 169, "-P2W"]
["CDISCPILOT01", "QS", "CDISC003", 38, "PHQ0106", "PHQ01-Feeling Bad About Yourself", "PHQ-9", "Not at all", "0", 0, "", 201, "EARLY DISCONTINUATION RETRIEVAL", "TREATMENT", "2014-02-13", 169, "-P2W"]
["CDISCPILOT01", "QS", "CDISC003", 39, "PHQ0107", "PHQ01-Trouble Concentrating on Things", "PHQ-9", "Not at all", "0", 0, "", 201, "EARLY DISCONTINUATION RETRIEVAL", "TREATMENT", "2014-02-13", 169, "-P2W"]
["CDISCPILOT01", "QS", "CDISC003", 40, "PHQ0108", "PHQ01-Moving Slowly or Fidgety/Restless", "PHQ-9", "Not at all", "0", 0, "", 201, "EARLY DISCONTINUATION RETRIEVAL", "TREATMENT", "2014-02-13", 169, "-P2W"]
["CDISCPILOT01", "QS", "CDISC003", 41, "PHQ0109", "PHQ01-Thoughts You Be Better Off Dead", "PHQ-9", "Several days", "1", 1, "", 201, "EARLY DISCONTINUATION RETRIEVAL", "TREATMENT", "2014-02-13", 169, "-P2W"]
["CDISCPILOT01", "QS", "CDISC003", 42, "PHQ0110", "PHQ01-Difficult to Work/Take Care Things", "PHQ-9", "Not difficult at all", "Not difficult at all", null, "", 201, "EARLY DISCONTINUATION RETRIEVAL", "TREATMENT", "2014-02-13", 169, "-P2W"]
["CDISCPILOT01", "QS", "CDISC003", 43, "PHQ0111", "PHQ01-Total Score", "PHQ-9", "2", "2", 2, "", 201, "EARLY DISCONTINUATION RETRIEVAL", "TREATMENT", "2014-02-13", 169, "-P2W"]
["CDISCPILOT01", "QS", "CDISC004", 1, "PHQ0101", "PHQ01-Little Interest/Pleasure in Things", "PHQ-9", "Nearly every day", "3", 3, "Y", 3, "BASELINE", "SCREENING", "2013-10-08", 1, "-P2W"]
["CDISCPILOT01", "QS", "CDISC004", 2, "PHQ0102", "PHQ01-Feeling Down Depressed or Hopeless", "PHQ-9", "Nearly every day", "3", 3, "Y", 3, "BASELINE", "SCREENING", "2013-10-08", 1, "-P2W"]
["CDISCPILOT01", "QS", "CDISC004", 3, "PHQ0103", "PHQ01-Trouble Falling or Staying Asleep", "PHQ-9", "Nearly every day", "3", 3, "Y", 3, "BASELINE", "SCREENING", "2013-10-08", 1, "-P2W"]
["CDISCPILOT01", "QS", "CDISC004", 4, "PHQ0104", "PHQ01-Feeling Tired or Little Energy", "PHQ-9", "Nearly every day", "3", 3, "Y", 3, "BASELINE", "SCREENING", "2013-10-08", 1, "-P2W"]
["CDISCPILOT01", "QS", "CDISC004", 5, "PHQ0105", "PHQ01-Poor Appetite or Overeating", "PHQ-9", "Nearly every day", "3", 3, "Y", 3, "BASELINE", "SCREENING", "2013-10-08", 1, "-P2W"]
["CDISCPILOT01", "QS", "CDISC004", 6, "PHQ0106", "PHQ01-Feeling Bad About Yourself", "PHQ-9", "Nearly every day", "3", 3, "Y", 3, "BASELINE", "SCREENING", "2013-10-08", 1, "-P2W"]
["CDISCPILOT01", "QS", "CDISC004", 7, "PHQ0107", "PHQ01-Trouble Concentrating on Things", "PHQ-9", "More than half the days", "2", 2, "Y", 3, "BASELINE", "SCREENING", "2013-10-08", 1, "-P2W"]
["CDISCPILOT01", "QS", "CDISC004", 8, "PHQ0108", "PHQ01-Moving Slowly or Fidgety/Restless", "PHQ-9", "Nearly every day", "3", 3, "Y", 3, "BASELINE", "SCREENING", "2013-10-08", 1, "-P2W"]
["CDISCPILOT01", "QS", "CDISC004", 9, "PHQ0109", "PHQ01-Thoughts You Be Better Off Dead", "PHQ-9", "Nearly every day", "3", 3, "Y", 3, "BASELINE", "SCREENING", "2013-10-08", 1, "-P2W"]
["CDISCPILOT01", "QS", "CDISC004", 10, "PHQ0110", "PHQ01-Difficult to Work/Take Care Things", "PHQ-9", "Very difficult", "Very difficult", null, "Y", 3, "BASELINE", "SCREENING", "2013-10-08", 1, "-P2W"]
["CDISCPILOT01", "QS", "CDISC004", 11, "PHQ0111", "PHQ01-Total Score", "PHQ-9", "27", "27", 27, "Y", 3, "BASELINE", "SCREENING", "2013-10-08", 1, "-P2W"]
["CDISCPILOT01", "QS", "CDISC007", 1, "PHQ0101", "PHQ01-Little Interest/Pleasure in Things", "PHQ-9", "Several days", "1", 1, "Y", 3, "BASELINE", "SCREENING", "2013-01-05", 1, "-P2W"]
["CDISCPILOT01", "QS", "CDISC007", 2, "PHQ0102", "PHQ01-Feeling Down Depressed or Hopeless", "PHQ-9", "Not at all", "0", 0, "Y", 3, "BASELINE", "SCREENING", "2013-01-05", 1, "-P2W"]
["CDISCPILOT01", "QS", "CDISC007", 3, "PHQ0103", "PHQ01-Trouble Falling or Staying Asleep", "PHQ-9", "Several days", "1", 1, "Y", 3, "BASELINE", "SCREENING", "2013-01-05", 1, "-P2W"]
["CDISCPILOT01", "QS", "CDISC007", 4, "PHQ0104", "PHQ01-Feeling Tired or Little Energy", "PHQ-9", "Not at all", "0", 0, "Y", 3, "BASELINE", "SCREENING", "2013-01-05", 1, "-P2W"]
["CDISCPILOT01", "QS", "CDISC007", 5, "PHQ0105", "PHQ01-Poor Appetite or Overeating", "PHQ-9", "Not at all", "0", 0, "Y", 3, "BASELINE", "SCREENING", "2013-01-05", 1, "-P2W"]
["CDISCPILOT01", "QS", "CDISC007", 6, "PHQ0106", "PHQ01-Feeling Bad About Yourself", "PHQ-9", "Several days", "1", 1, "Y", 3, "BASELINE", "SCREENING", "2013-01-05", 1, "-P2W"]
["CDISCPILOT01", "QS", "CDISC007", 7, "PHQ0107", "PHQ01-Trouble Concentrating on Things", "PHQ-9", "Not at all", "0", 0, "Y", 3, "BASELINE", "SCREENING", "2013-01-05", 1, "-P2W"]
["CDISCPILOT01", "QS", "CDISC007", 8, "PHQ0108", "PHQ01-Moving Slowly or Fidgety/Restless", "PHQ-9", "Several days", "1", 1, "Y", 3, "BASELINE", "SCREENING", "2013-01-05", 1, "-P2W"]
["CDISCPILOT01", "QS", "CDISC007", 9, "PHQ0109", "PHQ01-Thoughts You Be Better Off Dead", "PHQ-9", "Not at all", "0", 0, "Y", 3, "BASELINE", "SCREENING", "2013-01-05", 1, "-P2W"]
["CDISCPILOT01", "QS", "CDISC007", 10, "PHQ0110", "PHQ01-Difficult to Work/Take Care Things", "PHQ-9", "Not difficult at all", "Not difficult at all", null, "Y", 3, "BASELINE", "SCREENING", "2013-01-05", 1, "-P2W"]
["CDISCPILOT01", "QS", "CDISC007", 11, "PHQ0111", "PHQ01-Total Score", "PHQ-9", "4", "4", 4, "Y", 3, "BASELINE", "SCREENING", "2013-01-05", 1, "-P2W"]
["CDISCPILOT01", "QS", "CDISC008", 1, "PHQ0101", "PHQ01-Little Interest/Pleasure in Things", "PHQ-9", "More than half the days", "2", 2, "Y", 3, "BASELINE", "SCREENING", "2014-05-11", 1, "-P2W"]
["CDISCPILOT01", "QS", "CDISC008", 2, "PHQ0102", "PHQ01-Feeling Down Depressed or Hopeless", "PHQ-9", "Several days", "1", 1, "Y", 3, "BASELINE", "SCREENING", "2014-05-11", 1, "-P2W"]
["CDISCPILOT01", "QS", "CDISC008", 3, "PHQ0103", "PHQ01-Trouble Falling or Staying Asleep", "PHQ-9", "More than half the days", "2", 2, "Y", 3, "BASELINE", "SCREENING", "2014-05-11", 1, "-P2W"]
["CDISCPILOT01", "QS", "CDISC008", 4, "PHQ0104", "PHQ01-Feeling Tired or Little Energy", "PHQ-9", "Several days", "1", 1, "Y", 3, "BASELINE", "SCREENING", "2014-05-11", 1, "-P2W"]
["CDISCPILOT01", "QS", "CDISC008", 5, "PHQ0105", "PHQ01-Poor Appetite or Overeating", "PHQ-9", "More than half the days", "2", 2, "Y", 3, "BASELINE", "SCREENING", "2014-05-11", 1, "-P2W"]
["CDISCPILOT01", "QS", "CDISC008", 6, "PHQ0106", "PHQ01-Feeling Bad About Yourself", "PHQ-9", "Several days", "1", 1, "Y", 3, "BASELINE", "SCREENING", "2014-05-11", 1, "-P2W"]
["CDISCPILOT01", "QS", "CDISC008", 7, "PHQ0107", "PHQ01-Trouble Concentrating on Things", "PHQ-9", "Not at all", "0", 0, "Y", 3, "BASELINE", "SCREENING", "2014-05-11", 1, "-P2W"]
["CDISCPILOT01", "QS", "CDISC008", 8, "PHQ0108", "PHQ01-Moving Slowly or Fidgety/Restless", "PHQ-9", "More than half the days", "2", 2, "Y", 3, "BASELINE", "SCREENING", "2014-05-11", 1, "-P2W"]
["CDISCPILOT01", "QS", "CDISC008", 9, "PHQ0109", "PHQ01-Thoughts You Be Better Off Dead", "PHQ-9", "More than half the days", "2", 2, "Y", 3, "BASELINE", "SCREENING", "2014-05-11", 1, "-P2W"]
["CDISCPILOT01", "QS", "CDISC008", 10, "PHQ0110", "PHQ01-Difficult to Work/Take Care Things", "PHQ-9", "Not difficult at all", "Not difficult at all", null, "Y", 3, "BASELINE", "SCREENING", "2014-05-11", 1, "-P2W"]
["CDISCPILOT01", "QS", "CDISC008", 11, "PHQ0111", "PHQ01-Total Score", "PHQ-9", "13", "13", 13, "Y", 3, "BASELINE", "SCREENING", "2014-05-11", 1, "-P2W"]
["CDISCPILOT01", "QS", "CDISC008", 17, "PHQ0101", "PHQ01-Little Interest/Pleasure in Things", "PHQ-9", "More than half the days", "2", 2, "", 10, "WEEK 16", "TREATMENT", "2014-09-03", 116, "-P2W"]
["CDISCPILOT01", "QS", "CDISC008", 18, "PHQ0102", "PHQ01-Feeling Down Depressed or Hopeless", "PHQ-9", "Several days", "1", 1, "", 10, "WEEK 16", "TREATMENT", "2014-09-03", 116, "-P2W"]
["CDISCPILOT01", "QS", "CDISC008", 19, "PHQ0103", "PHQ01-Trouble Falling or Staying Asleep", "PHQ-9", "Several days", "1", 1, "", 10, "WEEK 16", "TREATMENT", "2014-09-03", 116, "-P2W"]
["CDISCPILOT01", "QS", "CDISC008", 20, "PHQ0104", "PHQ01-Feeling Tired or Little Energy", "PHQ-9", "Several days", "1", 1, "", 10, "WEEK 16", "TREATMENT", "2014-09-03", 116, "-P2W"]
["CDISCPILOT01", "QS", "CDISC008", 21, "PHQ0105", "PHQ01-Poor Appetite or Overeating", "PHQ-9", "Not at all", "0", 0, "", 10, "WEEK 16", "TREATMENT", "2014-09-03", 116, "-P2W"]
["CDISCPILOT01", "QS", "CDISC008", 22, "PHQ0106", "PHQ01-Feeling Bad About Yourself", "PHQ-9", "Several days", "1", 1, "", 10, "WEEK 16", "TREATMENT", "2014-09-03", 116, "-P2W"]
["CDISCPILOT01", "QS", "CDISC008", 23, "PHQ0107", "PHQ01-Trouble Concentrating on Things", "PHQ-9", "Not at all", "0", 0, "", 10, "WEEK 16", "TREATMENT", "2014-09-03", 116, "-P2W"]
["CDISCPILOT01", "QS", "CDISC008", 24, "PHQ0108", "PHQ01-Moving Slowly or Fidgety/Restless", "PHQ-9", "More than half the days", "2", 2, "", 10, "WEEK 16", "TREATMENT", "2014-09-03", 116, "-P2W"]
["CDISCPILOT01", "QS", "CDISC008", 25, "PHQ0109", "PHQ01-Thoughts You Be Better Off Dead", "PHQ-9", "Several days", "1", 1, "", 10, "WEEK 16", "TREATMENT", "2014-09-03", 116, "-P2W"]
["CDISCPILOT01", "QS", "CDISC008", 26, "PHQ0110", "PHQ01-Difficult to Work/Take Care Things", "PHQ-9", "Not difficult at all", "Not difficult at all", null, "", 10, "WEEK 16", "TREATMENT", "2014-09-03", 116, "-P2W"]
["CDISCPILOT01", "QS", "CDISC008", 27, "PHQ0111", "PHQ01-Total Score", "PHQ-9", "9", "9", 9, "", 10, "WEEK 16", "TREATMENT", "2014-09-03", 116, "-P2W"]
["CDISCPILOT01", "QS", "CDISC009", 1, "PHQ0101", "PHQ01-Little Interest/Pleasure in Things", "PHQ-9", "Several days", "1", 1, "Y", 3, "BASELINE", "SCREENING", "2012-10-22", 1, "-P2W"]
["CDISCPILOT01", "QS", "CDISC009", 2, "PHQ0102", "PHQ01-Feeling Down Depressed or Hopeless", "PHQ-9", "Several days", "1", 1, "Y", 3, "BASELINE", "SCREENING", "2012-10-22", 1, "-P2W"]
["CDISCPILOT01", "QS", "CDISC009", 3, "PHQ0103", "PHQ01-Trouble Falling or Staying Asleep", "PHQ-9", "Several days", "1", 1, "Y", 3, "BASELINE", "SCREENING", "2012-10-22", 1, "-P2W"]
["CDISCPILOT01", "QS", "CDISC009", 4, "PHQ0104", "PHQ01-Feeling Tired or Little Energy", "PHQ-9", "Not at all", "0", 0, "Y", 3, "BASELINE", "SCREENING", "2012-10-22", 1, "-P2W"]
["CDISCPILOT01", "QS", "CDISC009", 5, "PHQ0105", "PHQ01-Poor Appetite or Overeating", "PHQ-9", "More than half the days", "2", 2, "Y", 3, "BASELINE", "SCREENING", "2012-10-22", 1, "-P2W"]
["CDISCPILOT01", "QS", "CDISC009", 6, "PHQ0106", "PHQ01-Feeling Bad About Yourself", "PHQ-9", "More than half the days", "2", 2, "Y", 3, "BASELINE", "SCREENING", "2012-10-22", 1, "-P2W"]
["CDISCPILOT01", "QS", "CDISC009", 7, "PHQ0107", "PHQ01-Trouble Concentrating on Things", "PHQ-9", "Several days", "1", 1, "Y", 3, "BASELINE", "SCREENING", "2012-10-22", 1, "-P2W"]
["CDISCPILOT01", "QS", "CDISC009", 8, "PHQ0108", "PHQ01-Moving Slowly or Fidgety/Restless", "PHQ-9", "Several days", "1", 1, "Y", 3, "BASELINE", "SCREENING", "2012-10-22", 1, "-P2W"]
["CDISCPILOT01", "QS", "CDISC009", 9, "PHQ0109", "PHQ01-Thoughts You Be Better Off Dead", "PHQ-9", "Not at all", "0", 0, "Y", 3, "BASELINE", "SCREENING", "2012-10-22", 1, "-P2W"]
["CDISCPILOT01", "QS", "CDISC009", 10, "PHQ0110", "PHQ01-Difficult to Work/Take Care Things", "PHQ-9", "Somewhat difficult", "Somewhat difficult", null, "Y", 3, "BASELINE", "SCREENING", "2012-10-22", 1, "-P2W"]
["CDISCPILOT01", "QS", "CDISC009", 11, "PHQ0111", "PHQ01-Total Score", "PHQ-9", "9", "9", 9, "Y", 3, "BASELINE", "SCREENING", "2012-10-22", 1, "-P2W"]
["CDISCPILOT01", "QS", "CDISC009", 17, "PHQ0101", "PHQ01-Little Interest/Pleasure in Things", "PHQ-9", "Several days", "1", 1, "", 10, "WEEK 16", "TREATMENT", "2013-02-16", 118, "-P2W"]
["CDISCPILOT01", "QS", "CDISC009", 18, "PHQ0102", "PHQ01-Feeling Down Depressed or Hopeless", "PHQ-9", "Several days", "1", 1, "", 10, "WEEK 16", "TREATMENT", "2013-02-16", 118, "-P2W"]
["CDISCPILOT01", "QS", "CDISC009", 19, "PHQ0103", "PHQ01-Trouble Falling or Staying Asleep", "PHQ-9", "Several days", "1", 1, "", 10, "WEEK 16", "TREATMENT", "2013-02-16", 118, "-P2W"]
["CDISCPILOT01", "QS", "CDISC009", 20, "PHQ0104", "PHQ01-Feeling Tired or Little Energy", "PHQ-9", "Not at all", "0", 0, "", 10, "WEEK 16", "TREATMENT", "2013-02-16", 118, "-P2W"]
["CDISCPILOT01", "QS", "CDISC009", 21, "PHQ0105", "PHQ01-Poor Appetite or Overeating", "PHQ-9", "Several days", "1", 1, "", 10, "WEEK 16", "TREATMENT", "2013-02-16", 118, "-P2W"]
["CDISCPILOT01", "QS", "CDISC009", 22, "PHQ0106", "PHQ01-Feeling Bad About Yourself", "PHQ-9", "More than half the days", "2", 2, "", 10, "WEEK 16", "TREATMENT", "2013-02-16", 118, "-P2W"]
["CDISCPILOT01", "QS", "CDISC009", 23, "PHQ0107", "PHQ01-Trouble Concentrating on Things", "PHQ-9", "Several days", "1", 1, "", 10, "WEEK 16", "TREATMENT", "2013-02-16", 118, "-P2W"]
["CDISCPILOT01", "QS", "CDISC009", 24, "PHQ0108", "PHQ01-Moving Slowly or Fidgety/Restless", "PHQ-9", "Several days", "1", 1, "", 10, "WEEK 16", "TREATMENT", "2013-02-16", 118, "-P2W"]
["CDISCPILOT01", "QS", "CDISC009", 25, "PHQ0109", "PHQ01-Thoughts You Be Better Off Dead", "PHQ-9", "Not at all", "0", 0, "", 10, "WEEK 16", "TREATMENT", "2013-02-16", 118, "-P2W"]
["CDISCPILOT01", "QS", "CDISC009", 26, "PHQ0110", "PHQ01-Difficult to Work/Take Care Things", "PHQ-9", "Somewhat difficult", "Somewhat difficult", null, "", 10, "WEEK 16", "TREATMENT", "2013-02-16", 118, "-P2W"]
["CDISCPILOT01", "QS", "CDISC009", 27, "PHQ0111", "PHQ01-Total Score", "PHQ-9", "8", "8", 8, "", 10, "WEEK 16", "TREATMENT", "2013-02-16", 118, "-P2W"]
["CDISCPILOT01", "QS", "CDISC009", 33, "PHQ0101", "PHQ01-Little Interest/Pleasure in Things", "PHQ-9", "Several days", "1", 1, "", 12, "WEEK 24", "TREATMENT", "2013-04-10", 171, "-P2W"]
["CDISCPILOT01", "QS", "CDISC009", 34, "PHQ0102", "PHQ01-Feeling Down Depressed or Hopeless", "PHQ-9", "Several days", "1", 1, "", 12, "WEEK 24", "TREATMENT", "2013-04-10", 171, "-P2W"]
["CDISCPILOT01", "QS", "CDISC009", 35, "PHQ0103", "PHQ01-Trouble Falling or Staying Asleep", "PHQ-9", "Several days", "1", 1, "", 12, "WEEK 24", "TREATMENT", "2013-04-10", 171, "-P2W"]
["CDISCPILOT01", "QS", "CDISC009", 36, "PHQ0104", "PHQ01-Feeling Tired or Little Energy", "PHQ-9", "Not at all", "0", 0, "", 12, "WEEK 24", "TREATMENT", "2013-04-10", 171, "-P2W"]
["CDISCPILOT01", "QS", "CDISC009", 37, "PHQ0105", "PHQ01-Poor Appetite or Overeating", "PHQ-9", "Several days", "1", 1, "", 12, "WEEK 24", "TREATMENT", "2013-04-10", 171, "-P2W"]
["CDISCPILOT01", "QS", "CDISC009", 38, "PHQ0106", "PHQ01-Feeling Bad About Yourself", "PHQ-9", "More than half the days", "2", 2, "", 12, "WEEK 24", "TREATMENT", "2013-04-10", 171, "-P2W"]
["CDISCPILOT01", "QS", "CDISC009", 39, "PHQ0107", "PHQ01-Trouble Concentrating on Things", "PHQ-9", "Several days", "1", 1, "", 12, "WEEK 24", "TREATMENT", "2013-04-10", 171, "-P2W"]
["CDISCPILOT01", "QS", "CDISC009", 40, "PHQ0108", "PHQ01-Moving Slowly or Fidgety/Restless", "PHQ-9", "Several days", "1", 1, "", 12, "WEEK 24", "TREATMENT", "2013-04-10", 171, "-P2W"]
["CDISCPILOT01", "QS", "CDISC009", 41, "PHQ0109", "PHQ01-Thoughts You Be Better Off Dead", "PHQ-9", "Not at all", "0", 0, "", 12, "WEEK 24", "TREATMENT", "2013-04-10", 171, "-P2W"]
["CDISCPILOT01", "QS", "CDISC009", 42, "PHQ0110", "PHQ01-Difficult to Work/Take Care Things", "PHQ-9", "Not difficult at all", "Not difficult at all", null, "", 12, "WEEK 24", "TREATMENT", "2013-04-10", 171, "-P2W"]
["CDISCPILOT01", "QS", "CDISC009", 43, "PHQ0111", "PHQ01-Total Score", "PHQ-9", "8", "8", 8, "", 12, "WEEK 24", "TREATMENT", "2013-04-10", 171, "-P2W"]
["CDISCPILOT01", "QS", "CDISC011", 1, "PHQ0101", "PHQ01-Little Interest/Pleasure in Things", "PHQ-9", "More than half the days", "2", 2, "", 3, "BASELINE", "SCREENING", "2012-12-07", 1, "-P2W"]
["CDISCPILOT01", "QS", "CDISC011", 2, "PHQ0102", "PHQ01-Feeling Down Depressed or Hopeless", "PHQ-9", "More than half the days", "2", 2, "", 3, "BASELINE", "SCREENING", "2012-12-07", 1, "-P2W"]
["CDISCPILOT01", "QS", "CDISC011", 3, "PHQ0103", "PHQ01-Trouble Falling or Staying Asleep", "PHQ-9", "Nearly every day", "3", 3, "", 3, "BASELINE", "SCREENING", "2012-12-07", 1, "-P2W"]
["CDISCPILOT01", "QS", "CDISC011", 4, "PHQ0104", "PHQ01-Feeling Tired or Little Energy", "PHQ-9", "More than half the days", "2", 2, "", 3, "BASELINE", "SCREENING", "2012-12-07", 1, "-P2W"]
["CDISCPILOT01", "QS", "CDISC011", 5, "PHQ0105", "PHQ01-Poor Appetite or Overeating", "PHQ-9", "More than half the days", "2", 2, "", 3, "BASELINE", "SCREENING", "2012-12-07", 1, "-P2W"]
["CDISCPILOT01", "QS", "CDISC011", 6, "PHQ0106", "PHQ01-Feeling Bad About Yourself", "PHQ-9", "More than half the days", "2", 2, "", 3, "BASELINE", "SCREENING", "2012-12-07", 1, "-P2W"]
["CDISCPILOT01", "QS", "CDISC011", 7, "PHQ0107", "PHQ01-Trouble Concentrating on Things", "PHQ-9", "Several days", "1", 1, "", 3, "BASELINE", "SCREENING", "2012-12-07", 1, "-P2W"]
["CDISCPILOT01", "QS", "CDISC011", 8, "PHQ0108", "PHQ01-Moving Slowly or Fidgety/Restless", "PHQ-9", "Nearly every day", "3", 3, "", 3, "BASELINE", "SCREENING", "2012-12-07", 1, "-P2W"]
["CDISCPILOT01", "QS", "CDISC011", 9, "PHQ0109", "PHQ01-Thoughts You Be Better Off Dead", "PHQ-9", "More than half the days", "2", 2, "", 3, "BASELINE", "SCREENING", "2012-12-07", 1, "-P2W"]
["CDISCPILOT01", "QS", "CDISC011", 10, "PHQ0110", "PHQ01-Difficult to Work/Take Care Things", "PHQ-9", "Somewhat difficult", "Somewhat difficult", null, "", 3, "BASELINE", "SCREENING", "2012-12-07", 1, "-P2W"]
["CDISCPILOT01", "QS", "CDISC011", 11, "PHQ0111", "PHQ01-Total Score", "PHQ-9", "19", "19", 19, "", 3, "BASELINE", "SCREENING", "2012-12-07", 1, "-P2W"]
["CDISCPILOT01", "QS", "CDISC011", 17, "PHQ0101", "PHQ01-Little Interest/Pleasure in Things", "PHQ-9", "More than half the days", "2", 2, "", 10, "WEEK 16", "TREATMENT", "2013-03-27", 111, "-P2W"]
["CDISCPILOT01", "QS", "CDISC011", 18, "PHQ0102", "PHQ01-Feeling Down Depressed or Hopeless", "PHQ-9", "More than half the days", "2", 2, "", 10, "WEEK 16", "TREATMENT", "2013-03-27", 111, "-P2W"]
["CDISCPILOT01", "QS", "CDISC011", 19, "PHQ0103", "PHQ01-Trouble Falling or Staying Asleep", "PHQ-9", "Nearly every day", "3", 3, "", 10, "WEEK 16", "TREATMENT", "2013-03-27", 111, "-P2W"]
["CDISCPILOT01", "QS", "CDISC011", 20, "PHQ0104", "PHQ01-Feeling Tired or Little Energy", "PHQ-9", "More than half the days", "2", 2, "", 10, "WEEK 16", "TREATMENT", "2013-03-27", 111, "-P2W"]
["CDISCPILOT01", "QS", "CDISC011", 21, "PHQ0105", "PHQ01-Poor Appetite or Overeating", "PHQ-9", "More than half the days", "2", 2, "", 10, "WEEK 16", "TREATMENT", "2013-03-27", 111, "-P2W"]
["CDISCPILOT01", "QS", "CDISC011", 22, "PHQ0106", "PHQ01-Feeling Bad About Yourself", "PHQ-9", "More than half the days", "2", 2, "", 10, "WEEK 16", "TREATMENT", "2013-03-27", 111, "-P2W"]
["CDISCPILOT01", "QS", "CDISC011", 23, "PHQ0107", "PHQ01-Trouble Concentrating on Things", "PHQ-9", "Several days", "1", 1, "", 10, "WEEK 16", "TREATMENT", "2013-03-27", 111, "-P2W"]
["CDISCPILOT01", "QS", "CDISC011", 24, "PHQ0108", "PHQ01-Moving Slowly or Fidgety/Restless", "PHQ-9", "Nearly every day", "3", 3, "", 10, "WEEK 16", "TREATMENT", "2013-03-27", 111, "-P2W"]
["CDISCPILOT01", "QS", "CDISC011", 25, "PHQ0109", "PHQ01-Thoughts You Be Better Off Dead", "PHQ-9", "More than half the days", "2", 2, "", 10, "WEEK 16", "TREATMENT", "2013-03-27", 111, "-P2W"]
["CDISCPILOT01", "QS", "CDISC011", 26, "PHQ0110", "PHQ01-Difficult to Work/Take Care Things", "PHQ-9", "Not difficult at all", "Not difficult at all", null, "", 10, "WEEK 16", "TREATMENT", "2013-03-27", 111, "-P2W"]
["CDISCPILOT01", "QS", "CDISC011", 27, "PHQ0111", "PHQ01-Total Score", "PHQ-9", "19", "19", 19, "", 10, "WEEK 16", "TREATMENT", "2013-03-27", 111, "-P2W"]
["CDISCPILOT01", "QS", "CDISC011", 28, "PHQ0101", "PHQ01-Little Interest/Pleasure in Things", "PHQ-9", "More than half the days", "2", 2, "", 12, "WEEK 24", "TREATMENT", "2013-05-22", 167, "-P2W"]
["CDISCPILOT01", "QS", "CDISC011", 29, "PHQ0102", "PHQ01-Feeling Down Depressed or Hopeless", "PHQ-9", "More than half the days", "2", 2, "", 12, "WEEK 24", "TREATMENT", "2013-05-22", 167, "-P2W"]
["CDISCPILOT01", "QS", "CDISC011", 30, "PHQ0103", "PHQ01-Trouble Falling or Staying Asleep", "PHQ-9", "Nearly every day", "3", 3, "", 12, "WEEK 24", "TREATMENT", "2013-05-22", 167, "-P2W"]
["CDISCPILOT01", "QS", "CDISC011", 31, "PHQ0104", "PHQ01-Feeling Tired or Little Energy", "PHQ-9", "More than half the days", "2", 2, "", 12, "WEEK 24", "TREATMENT", "2013-05-22", 167, "-P2W"]
["CDISCPILOT01", "QS", "CDISC011", 32, "PHQ0105", "PHQ01-Poor Appetite or Overeating", "PHQ-9", "More than half the days", "2", 2, "", 12, "WEEK 24", "TREATMENT", "2013-05-22", 167, "-P2W"]
["CDISCPILOT01", "QS", "CDISC011", 33, "PHQ0106", "PHQ01-Feeling Bad About Yourself", "PHQ-9", "More than half the days", "2", 2, "", 12, "WEEK 24", "TREATMENT", "2013-05-22", 167, "-P2W"]
["CDISCPILOT01", "QS", "CDISC011", 34, "PHQ0107", "PHQ01-Trouble Concentrating on Things", "PHQ-9", "More than half the days", "2", 2, "", 12, "WEEK 24", "TREATMENT", "2013-05-22", 167, "-P2W"]
["CDISCPILOT01", "QS", "CDISC011", 35, "PHQ0108", "PHQ01-Moving Slowly or Fidgety/Restless", "PHQ-9", "Nearly every day", "3", 3, "", 12, "WEEK 24", "TREATMENT", "2013-05-22", 167, "-P2W"]
["CDISCPILOT01", "QS", "CDISC011", 36, "PHQ0109", "PHQ01-Thoughts You Be Better Off Dead", "PHQ-9", "More than half the days", "2", 2, "", 12, "WEEK 24", "TREATMENT", "2013-05-22", 167, "-P2W"]
["CDISCPILOT01", "QS", "CDISC011", 37, "PHQ0110", "PHQ01-Difficult to Work/Take Care Things", "PHQ-9", "Somewhat difficult", "Somewhat difficult", null, "", 12, "WEEK 24", "TREATMENT", "2013-05-22", 167, "-P2W"]
["CDISCPILOT01", "QS", "CDISC011", 38, "PHQ0111", "PHQ01-Total Score", "PHQ-9", "20", "20", 20, "", 12, "WEEK 24", "TREATMENT", "2013-05-22", 167, "-P2W"]
["CDISCPILOT01", "QS", "CDISC012", 1, "PHQ0101", "PHQ01-Little Interest/Pleasure in Things", "PHQ-9", "Several days", "1", 1, "Y", 3, "BASELINE", "SCREENING", "2013-09-03", 1, "-P2W"]
["CDISCPILOT01", "QS", "CDISC012", 2, "PHQ0102", "PHQ01-Feeling Down Depressed or Hopeless", "PHQ-9", "Several days", "1", 1, "Y", 3, "BASELINE", "SCREENING", "2013-09-03", 1, "-P2W"]
["CDISCPILOT01", "QS", "CDISC012", 3, "PHQ0103", "PHQ01-Trouble Falling or Staying Asleep", "PHQ-9", "More than half the days", "2", 2, "Y", 3, "BASELINE", "SCREENING", "2013-09-03", 1, "-P2W"]
["CDISCPILOT01", "QS", "CDISC012", 4, "PHQ0104", "PHQ01-Feeling Tired or Little Energy", "PHQ-9", "Several days", "1", 1, "Y", 3, "BASELINE", "SCREENING", "2013-09-03", 1, "-P2W"]
["CDISCPILOT01", "QS", "CDISC012", 5, "PHQ0105", "PHQ01-Poor Appetite or Overeating", "PHQ-9", "Several days", "1", 1, "Y", 3, "BASELINE", "SCREENING", "2013-09-03", 1, "-P2W"]
["CDISCPILOT01", "QS", "CDISC012", 6, "PHQ0106", "PHQ01-Feeling Bad About Yourself", "PHQ-9", "Several days", "1", 1, "Y", 3, "BASELINE", "SCREENING", "2013-09-03", 1, "-P2W"]
["CDISCPILOT01", "QS", "CDISC012", 7, "PHQ0107", "PHQ01-Trouble Concentrating on Things", "PHQ-9", "Several days", "1", 1, "Y", 3, "BASELINE", "SCREENING", "2013-09-03", 1, "-P2W"]
["CDISCPILOT01", "QS", "CDISC012", 8, "PHQ0108", "PHQ01-Moving Slowly or Fidgety/Restless", "PHQ-9", "Not at all", "0", 0, "Y", 3, "BASELINE", "SCREENING", "2013-09-03", 1, "-P2W"]
["CDISCPILOT01", "QS", "CDISC012", 9, "PHQ0109", "PHQ01-Thoughts You Be Better Off Dead", "PHQ-9", "Not at all", "0", 0, "Y", 3, "BASELINE", "SCREENING", "2013-09-03", 1, "-P2W"]
["CDISCPILOT01", "QS", "CDISC012", 10, "PHQ0110", "PHQ01-Difficult to Work/Take Care Things", "PHQ-9", "Not difficult at all", "Not difficult at all", null, "Y", 3, "BASELINE", "SCREENING", "2013-09-03", 1, "-P2W"]
["CDISCPILOT01", "QS", "CDISC012", 11, "PHQ0111", "PHQ01-Total Score", "PHQ-9", "8", "8", 8, "Y", 3, "BASELINE", "SCREENING", "2013-09-03", 1, "-P2W"]
["CDISCPILOT01", "QS", "CDISC012", 17, "PHQ0101", "PHQ01-Little Interest/Pleasure in Things", "PHQ-9", "Several days", "1", 1, "", 10, "WEEK 16", "TREATMENT", "2014-01-12", 132, "-P2W"]
["CDISCPILOT01", "QS", "CDISC012", 18, "PHQ0102", "PHQ01-Feeling Down Depressed or Hopeless", "PHQ-9", "Several days", "1", 1, "", 10, "WEEK 16", "TREATMENT", "2014-01-12", 132, "-P2W"]
["CDISCPILOT01", "QS", "CDISC012", 19, "PHQ0103", "PHQ01-Trouble Falling or Staying Asleep", "PHQ-9", "Several days", "1", 1, "", 10, "WEEK 16", "TREATMENT", "2014-01-12", 132, "-P2W"]
["CDISCPILOT01", "QS", "CDISC012", 20, "PHQ0104", "PHQ01-Feeling Tired or Little Energy", "PHQ-9", "More than half the days", "2", 2, "", 10, "WEEK 16", "TREATMENT", "2014-01-12", 132, "-P2W"]
["CDISCPILOT01", "QS", "CDISC012", 21, "PHQ0105", "PHQ01-Poor Appetite or Overeating", "PHQ-9", "More than half the days", "2", 2, "", 10, "WEEK 16", "TREATMENT", "2014-01-12", 132, "-P2W"]
["CDISCPILOT01", "QS", "CDISC012", 22, "PHQ0106", "PHQ01-Feeling Bad About Yourself", "PHQ-9", "Several days", "1", 1, "", 10, "WEEK 16", "TREATMENT", "2014-01-12", 132, "-P2W"]
["CDISCPILOT01", "QS", "CDISC012", 23, "PHQ0107", "PHQ01-Trouble Concentrating on Things", "PHQ-9", "Several days", "1", 1, "", 10, "WEEK 16", "TREATMENT", "2014-01-12", 132, "-P2W"]
["CDISCPILOT01", "QS", "CDISC012", 24, "PHQ0108", "PHQ01-Moving Slowly or Fidgety/Restless", "PHQ-9", "Not at all", "0", 0, "", 10, "WEEK 16", "TREATMENT", "2014-01-12", 132, "-P2W"]
["CDISCPILOT01", "QS", "CDISC012", 25, "PHQ0109", "PHQ01-Thoughts You Be Better Off Dead", "PHQ-9", "Not at all", "0", 0, "", 10, "WEEK 16", "TREATMENT", "2014-01-12", 132, "-P2W"]
["CDISCPILOT01", "QS", "CDISC012", 26, "PHQ0110", "PHQ01-Difficult to Work/Take Care Things", "PHQ-9", "Not difficult at all", "Not difficult at all", null, "", 10, "WEEK 16", "TREATMENT", "2014-01-12", 132, "-P2W"]
["CDISCPILOT01", "QS", "CDISC012", 27, "PHQ0111", "PHQ01-Total Score", "PHQ-9", "9", "9", 9, "", 10, "WEEK 16", "TREATMENT", "2014-01-12", 132, "-P2W"]
["CDISCPILOT01", "QS", "CDISC012", 29, "PHQ0101", "PHQ01-Little Interest/Pleasure in Things", "PHQ-9", "Several days", "1", 1, "", 11, "WEEK 20", "TREATMENT", "2014-01-28", 148, "-P2W"]
["CDISCPILOT01", "QS", "CDISC012", 30, "PHQ0102", "PHQ01-Feeling Down Depressed or Hopeless", "PHQ-9", "More than half the days", "2", 2, "", 11, "WEEK 20", "TREATMENT", "2014-01-28", 148, "-P2W"]
["CDISCPILOT01", "QS", "CDISC012", 31, "PHQ0103", "PHQ01-Trouble Falling or Staying Asleep", "PHQ-9", "Several days", "1", 1, "", 11, "WEEK 20", "TREATMENT", "2014-01-28", 148, "-P2W"]
["CDISCPILOT01", "QS", "CDISC012", 32, "PHQ0104", "PHQ01-Feeling Tired or Little Energy", "PHQ-9", "More than half the days", "2", 2, "", 11, "WEEK 20", "TREATMENT", "2014-01-28", 148, "-P2W"]
["CDISCPILOT01", "QS", "CDISC012", 33, "PHQ0105", "PHQ01-Poor Appetite or Overeating", "PHQ-9", "More than half the days", "2", 2, "", 11, "WEEK 20", "TREATMENT", "2014-01-28", 148, "-P2W"]
["CDISCPILOT01", "QS", "CDISC012", 34, "PHQ0106", "PHQ01-Feeling Bad About Yourself", "PHQ-9", "Several days", "1", 1, "", 11, "WEEK 20", "TREATMENT", "2014-01-28", 148, "-P2W"]
["CDISCPILOT01", "QS", "CDISC012", 35, "PHQ0107", "PHQ01-Trouble Concentrating on Things", "PHQ-9", "Several days", "1", 1, "", 11, "WEEK 20", "TREATMENT", "2014-01-28", 148, "-P2W"]
["CDISCPILOT01", "QS", "CDISC012", 36, "PHQ0108", "PHQ01-Moving Slowly or Fidgety/Restless", "PHQ-9", "Several days", "1", 1, "", 11, "WEEK 20", "TREATMENT", "2014-01-28", 148, "-P2W"]
["CDISCPILOT01", "QS", "CDISC012", 37, "PHQ0109", "PHQ01-Thoughts You Be Better Off Dead", "PHQ-9", "Several days", "1", 1, "", 11, "WEEK 20", "TREATMENT", "2014-01-28", 148, "-P2W"]
["CDISCPILOT01", "QS", "CDISC012", 38, "PHQ0110", "PHQ01-Difficult to Work/Take Care Things", "PHQ-9", "Somewhat difficult", "Somewhat difficult", null, "", 11, "WEEK 20", "TREATMENT", "2014-01-28", 148, "-P2W"]
["CDISCPILOT01", "QS", "CDISC012", 39, "PHQ0111", "PHQ01-Total Score", "PHQ-9", "12", "12", 12, "", 11, "WEEK 20", "TREATMENT", "2014-01-28", 148, "-P2W"]
["CDISCPILOT01", "QS", "CDISC014", 1, "PHQ0101", "PHQ01-Little Interest/Pleasure in Things", "PHQ-9", "Not at all", "0", 0, "Y", 3, "BASELINE", "SCREENING", "2013-04-03", 1, "-P2W"]
["CDISCPILOT01", "QS", "CDISC014", 2, "PHQ0102", "PHQ01-Feeling Down Depressed or Hopeless", "PHQ-9", "Not at all", "0", 0, "Y", 3, "BASELINE", "SCREENING", "2013-04-03", 1, "-P2W"]
["CDISCPILOT01", "QS", "CDISC014", 3, "PHQ0103", "PHQ01-Trouble Falling or Staying Asleep", "PHQ-9", "Several days", "1", 1, "Y", 3, "BASELINE", "SCREENING", "2013-04-03", 1, "-P2W"]
["CDISCPILOT01", "QS", "CDISC014", 4, "PHQ0104", "PHQ01-Feeling Tired or Little Energy", "PHQ-9", "Not at all", "0", 0, "Y", 3, "BASELINE", "SCREENING", "2013-04-03", 1, "-P2W"]
["CDISCPILOT01", "QS", "CDISC014", 5, "PHQ0105", "PHQ01-Poor Appetite or Overeating", "PHQ-9", "Several days", "1", 1, "Y", 3, "BASELINE", "SCREENING", "2013-04-03", 1, "-P2W"]
["CDISCPILOT01", "QS", "CDISC014", 6, "PHQ0106", "PHQ01-Feeling Bad About Yourself", "PHQ-9", "Not at all", "0", 0, "Y", 3, "BASELINE", "SCREENING", "2013-04-03", 1, "-P2W"]
["CDISCPILOT01", "QS", "CDISC014", 7, "PHQ0107", "PHQ01-Trouble Concentrating on Things", "PHQ-9", "Not at all", "0", 0, "Y", 3, "BASELINE", "SCREENING", "2013-04-03", 1, "-P2W"]
["CDISCPILOT01", "QS", "CDISC014", 8, "PHQ0108", "PHQ01-Moving Slowly or Fidgety/Restless", "PHQ-9", "Not at all", "0", 0, "Y", 3, "BASELINE", "SCREENING", "2013-04-03", 1, "-P2W"]
["CDISCPILOT01", "QS", "CDISC014", 9, "PHQ0109", "PHQ01-Thoughts You Be Better Off Dead", "PHQ-9", "Not at all", "0", 0, "Y", 3, "BASELINE", "SCREENING", "2013-04-03", 1, "-P2W"]
["CDISCPILOT01", "QS", "CDISC014", 10, "PHQ0110", "PHQ01-Difficult to Work/Take Care Things", "PHQ-9", "Not at all", "Not at all", null, "Y", 3, "BASELINE", "SCREENING", "2013-04-03", 1, "-P2W"]
["CDISCPILOT01", "QS", "CDISC014", 11, "PHQ0111", "PHQ01-Total Score", "PHQ-9", "2", "2", 2, "Y", 3, "BASELINE", "SCREENING", "2013-04-03", 1, "-P2W"]
["CDISCPILOT01", "QS", "CDISC014", 17, "PHQ0101", "PHQ01-Little Interest/Pleasure in Things", "PHQ-9", "Not at all", "0", 0, "", 201, "EARLY DISCONTINUATION RETRIEVAL", "TREATMENT", "2013-09-18", 169, "-P2W"]
["CDISCPILOT01", "QS", "CDISC014", 18, "PHQ0102", "PHQ01-Feeling Down Depressed or Hopeless", "PHQ-9", "Not at all", "0", 0, "", 201, "EARLY DISCONTINUATION RETRIEVAL", "TREATMENT", "2013-09-18", 169, "-P2W"]
["CDISCPILOT01", "QS", "CDISC014", 19, "PHQ0103", "PHQ01-Trouble Falling or Staying Asleep", "PHQ-9", "Not at all", "0", 0, "", 201, "EARLY DISCONTINUATION RETRIEVAL", "TREATMENT", "2013-09-18", 169, "-P2W"]
["CDISCPILOT01", "QS", "CDISC014", 20, "PHQ0104", "PHQ01-Feeling Tired or Little Energy", "PHQ-9", "Not at all", "0", 0, "", 201, "EARLY DISCONTINUATION RETRIEVAL", "TREATMENT", "2013-09-18", 169, "-P2W"]
["CDISCPILOT01", "QS", "CDISC014", 21, "PHQ0105", "PHQ01-Poor Appetite or Overeating", "PHQ-9", "Not at all", "0", 0, "", 201, "EARLY DISCONTINUATION RETRIEVAL", "TREATMENT", "2013-09-18", 169, "-P2W"]
["CDISCPILOT01", "QS", "CDISC014", 22, "PHQ0106", "PHQ01-Feeling Bad About Yourself", "PHQ-9", "Not at all", "0", 0, "", 201, "EARLY DISCONTINUATION RETRIEVAL", "TREATMENT", "2013-09-18", 169, "-P2W"]
["CDISCPILOT01", "QS", "CDISC014", 23, "PHQ0107", "PHQ01-Trouble Concentrating on Things", "PHQ-9", "Not at all", "0", 0, "", 201, "EARLY DISCONTINUATION RETRIEVAL", "TREATMENT", "2013-09-18", 169, "-P2W"]
["CDISCPILOT01", "QS", "CDISC014", 24, "PHQ0108", "PHQ01-Moving Slowly or Fidgety/Restless", "PHQ-9", "Not at all", "0", 0, "", 201, "EARLY DISCONTINUATION RETRIEVAL", "TREATMENT", "2013-09-18", 169, "-P2W"]
["CDISCPILOT01", "QS", "CDISC014", 25, "PHQ0109", "PHQ01-Thoughts You Be Better Off Dead", "PHQ-9", "Not at all", "0", 0, "", 201, "EARLY DISCONTINUATION RETRIEVAL", "TREATMENT", "2013-09-18", 169, "-P2W"]
["CDISCPILOT01", "QS", "CDISC014", 26, "PHQ0110", "PHQ01-Difficult to Work/Take Care Things", "PHQ-9", "Not at all", "Not at all", null, "", 201, "EARLY DISCONTINUATION RETRIEVAL", "TREATMENT", "2013-09-18", 169, "-P2W"]
["CDISCPILOT01", "QS", "CDISC014", 27, "PHQ0111", "PHQ01-Total Score", "PHQ-9", "0", "0", 0, "", 201, "EARLY DISCONTINUATION RETRIEVAL", "TREATMENT", "2013-09-18", 169, "-P2W"]
["CDISCPILOT01", "QS", "CDISC016", 1, "PHQ0101", "PHQ01-Little Interest/Pleasure in Things", "PHQ-9", "Several days", "1", 1, "Y", 3, "BASELINE", "SCREENING", "2013-04-03", 1, "-P2W"]
["CDISCPILOT01", "QS", "CDISC016", 2, "PHQ0102", "PHQ01-Feeling Down Depressed or Hopeless", "PHQ-9", "More than half the days", "2", 2, "Y", 3, "BASELINE", "SCREENING", "2013-04-03", 1, "-P2W"]
["CDISCPILOT01", "QS", "CDISC016", 3, "PHQ0103", "PHQ01-Trouble Falling or Staying Asleep", "PHQ-9", "More than half the days", "2", 2, "Y", 3, "BASELINE", "SCREENING", "2013-04-03", 1, "-P2W"]
["CDISCPILOT01", "QS", "CDISC016", 4, "PHQ0104", "PHQ01-Feeling Tired or Little Energy", "PHQ-9", "Nearly every day", "3", 3, "Y", 3, "BASELINE", "SCREENING", "2013-04-03", 1, "-P2W"]
["CDISCPILOT01", "QS", "CDISC016", 5, "PHQ0105", "PHQ01-Poor Appetite or Overeating", "PHQ-9", "More than half the days", "2", 2, "Y", 3, "BASELINE", "SCREENING", "2013-04-03", 1, "-P2W"]
["CDISCPILOT01", "QS", "CDISC016", 6, "PHQ0106", "PHQ01-Feeling Bad About Yourself", "PHQ-9", "More than half the days", "2", 2, "Y", 3, "BASELINE", "SCREENING", "2013-04-03", 1, "-P2W"]
["CDISCPILOT01", "QS", "CDISC016", 7, "PHQ0107", "PHQ01-Trouble Concentrating on Things", "PHQ-9", "Nearly every day", "3", 3, "Y", 3, "BASELINE", "SCREENING", "2013-04-03", 1, "-P2W"]
["CDISCPILOT01", "QS", "CDISC016", 8, "PHQ0108", "PHQ01-Moving Slowly or Fidgety/Restless", "PHQ-9", "Nearly every day", "3", 3, "Y", 3, "BASELINE", "SCREENING", "2013-04-03", 1, "-P2W"]
["CDISCPILOT01", "QS", "CDISC016", 9, "PHQ0109", "PHQ01-Thoughts You Be Better Off Dead", "PHQ-9", "More than half the days", "2", 2, "Y", 3, "BASELINE", "SCREENING", "2013-04-03", 1, "-P2W"]
["CDISCPILOT01", "QS", "CDISC016", 10, "PHQ0110", "PHQ01-Difficult to Work/Take Care Things", "PHQ-9", "Somewhat difficult", "Somewhat difficult", null, "Y", 3, "BASELINE", "SCREENING", "2013-04-03", 1, "-P2W"]
["CDISCPILOT01", "QS", "CDISC016", 11, "PHQ0111", "PHQ01-Total Score", "PHQ-9", "20", "20", 20, "Y", 3, "BASELINE", "SCREENING", "2013-04-03", 1, "-P2W"]
["CDISCPILOT01", "QS", "CDISC016", 17, "PHQ0101", "PHQ01-Little Interest/Pleasure in Things", "PHQ-9", "Several days", "1", 1, "", 9, "WEEK 12", "TREATMENT", "2013-06-01", 60, "-P2W"]
["CDISCPILOT01", "QS", "CDISC016", 18, "PHQ0102", "PHQ01-Feeling Down Depressed or Hopeless", "PHQ-9", "More than half the days", "2", 2, "", 9, "WEEK 12", "TREATMENT", "2013-06-01", 60, "-P2W"]
["CDISCPILOT01", "QS", "CDISC016", 19, "PHQ0103", "PHQ01-Trouble Falling or Staying Asleep", "PHQ-9", "More than half the days", "2", 2, "", 9, "WEEK 12", "TREATMENT", "2013-06-01", 60, "-P2W"]
["CDISCPILOT01", "QS", "CDISC016", 20, "PHQ0104", "PHQ01-Feeling Tired or Little Energy", "PHQ-9", "Nearly every day", "3", 3, "", 9, "WEEK 12", "TREATMENT", "2013-06-01", 60, "-P2W"]
["CDISCPILOT01", "QS", "CDISC016", 21, "PHQ0105", "PHQ01-Poor Appetite or Overeating", "PHQ-9", "More than half the days", "2", 2, "", 9, "WEEK 12", "TREATMENT", "2013-06-01", 60, "-P2W"]
["CDISCPILOT01", "QS", "CDISC016", 22, "PHQ0106", "PHQ01-Feeling Bad About Yourself", "PHQ-9", "More than half the days", "2", 2, "", 9, "WEEK 12", "TREATMENT", "2013-06-01", 60, "-P2W"]
["CDISCPILOT01", "QS", "CDISC016", 23, "PHQ0107", "PHQ01-Trouble Concentrating on Things", "PHQ-9", "Nearly every day", "3", 3, "", 9, "WEEK 12", "TREATMENT", "2013-06-01", 60, "-P2W"]
["CDISCPILOT01", "QS", "CDISC016", 24, "PHQ0108", "PHQ01-Moving Slowly or Fidgety/Restless", "PHQ-9", "Nearly every day", "3", 3, "", 9, "WEEK 12", "TREATMENT", "2013-06-01", 60, "-P2W"]
["CDISCPILOT01", "QS", "CDISC016", 25, "PHQ0109", "PHQ01-Thoughts You Be Better Off Dead", "PHQ-9", "More than half the days", "2", 2, "", 9, "WEEK 12", "TREATMENT", "2013-06-01", 60, "-P2W"]
["CDISCPILOT01", "QS", "CDISC016", 26, "PHQ0110", "PHQ01-Difficult to Work/Take Care Things", "PHQ-9", "Somewhat difficult", "Somewhat difficult", null, "", 9, "WEEK 12", "TREATMENT", "2013-06-01", 60, "-P2W"]
["CDISCPILOT01", "QS", "CDISC016", 27, "PHQ0111", "PHQ01-Total Score", "PHQ-9", "20", "20", 20, "", 9, "WEEK 12", "TREATMENT", "2013-06-01", 60, "-P2W"]
["CDISCPILOT01", "QS", "CDISC016", 33, "PHQ0101", "PHQ01-Little Interest/Pleasure in Things", "PHQ-9", "Several days", "1", 1, "", 201, "EARLY DISCONTINUATION RETRIEVAL", "TREATMENT", "2013-09-22", 173, "-P2W"]
["CDISCPILOT01", "QS", "CDISC016", 34, "PHQ0102", "PHQ01-Feeling Down Depressed or Hopeless", "PHQ-9", "More than half the days", "2", 2, "", 201, "EARLY DISCONTINUATION RETRIEVAL", "TREATMENT", "2013-09-22", 173, "-P2W"]
["CDISCPILOT01", "QS", "CDISC016", 35, "PHQ0103", "PHQ01-Trouble Falling or Staying Asleep", "PHQ-9", "More than half the days", "2", 2, "", 201, "EARLY DISCONTINUATION RETRIEVAL", "TREATMENT", "2013-09-22", 173, "-P2W"]
["CDISCPILOT01", "QS", "CDISC016", 36, "PHQ0104", "PHQ01-Feeling Tired or Little Energy", "PHQ-9", "More than half the days", "2", 2, "", 201, "EARLY DISCONTINUATION RETRIEVAL", "TREATMENT", "2013-09-22", 173, "-P2W"]
["CDISCPILOT01", "QS", "CDISC016", 37, "PHQ0105", "PHQ01-Poor Appetite or Overeating", "PHQ-9", "More than half the days", "2", 2, "", 201, "EARLY DISCONTINUATION RETRIEVAL", "TREATMENT", "2013-09-22", 173, "-P2W"]
["CDISCPILOT01", "QS", "CDISC016", 38, "PHQ0106", "PHQ01-Feeling Bad About Yourself", "PHQ-9", "More than half the days", "2", 2, "", 201, "EARLY DISCONTINUATION RETRIEVAL", "TREATMENT", "2013-09-22", 173, "-P2W"]
["CDISCPILOT01", "QS", "CDISC016", 39, "PHQ0107", "PHQ01-Trouble Concentrating on Things", "PHQ-9", "Several days", "1", 1, "", 201, "EARLY DISCONTINUATION RETRIEVAL", "TREATMENT", "2013-09-22", 173, "-P2W"]
["CDISCPILOT01", "QS", "CDISC016", 40, "PHQ0108", "PHQ01-Moving Slowly or Fidgety/Restless", "PHQ-9", "More than half the days", "2", 2, "", 201, "EARLY DISCONTINUATION RETRIEVAL", "TREATMENT", "2013-09-22", 173, "-P2W"]
["CDISCPILOT01", "QS", "CDISC016", 41, "PHQ0109", "PHQ01-Thoughts You Be Better Off Dead", "PHQ-9", "Several days", "1", 1, "", 201, "EARLY DISCONTINUATION RETRIEVAL", "TREATMENT", "2013-09-22", 173, "-P2W"]
["CDISCPILOT01", "QS", "CDISC016", 42, "PHQ0110", "PHQ01-Difficult to Work/Take Care Things", "PHQ-9", "Not difficult at all", "Not difficult at all", null, "", 201, "EARLY DISCONTINUATION RETRIEVAL", "TREATMENT", "2013-09-22", 173, "-P2W"]
["CDISCPILOT01", "QS", "CDISC016", 43, "PHQ0111", "PHQ01-Total Score", "PHQ-9", "15", "15", 15, "", 201, "EARLY DISCONTINUATION RETRIEVAL", "TREATMENT", "2013-09-22", 173, "-P2W"]
["CDISCPILOT01", "QS", "CDISC017", 1, "PHQ0101", "PHQ01-Little Interest/Pleasure in Things", "PHQ-9", "Several days", "1", 1, "Y", 3, "BASELINE", "SCREENING", "2013-09-21", 1, "-P2W"]
["CDISCPILOT01", "QS", "CDISC017", 2, "PHQ0102", "PHQ01-Feeling Down Depressed or Hopeless", "PHQ-9", "Several days", "1", 1, "Y", 3, "BASELINE", "SCREENING", "2013-09-21", 1, "-P2W"]
["CDISCPILOT01", "QS", "CDISC017", 3, "PHQ0103", "PHQ01-Trouble Falling or Staying Asleep", "PHQ-9", "Several days", "1", 1, "Y", 3, "BASELINE", "SCREENING", "2013-09-21", 1, "-P2W"]
["CDISCPILOT01", "QS", "CDISC017", 4, "PHQ0104", "PHQ01-Feeling Tired or Little Energy", "PHQ-9", "More than half the days", "2", 2, "Y", 3, "BASELINE", "SCREENING", "2013-09-21", 1, "-P2W"]
["CDISCPILOT01", "QS", "CDISC017", 5, "PHQ0105", "PHQ01-Poor Appetite or Overeating", "PHQ-9", "Several days", "1", 1, "Y", 3, "BASELINE", "SCREENING", "2013-09-21", 1, "-P2W"]
["CDISCPILOT01", "QS", "CDISC017", 6, "PHQ0106", "PHQ01-Feeling Bad About Yourself", "PHQ-9", "Not at all", "0", 0, "Y", 3, "BASELINE", "SCREENING", "2013-09-21", 1, "-P2W"]
["CDISCPILOT01", "QS", "CDISC017", 7, "PHQ0107", "PHQ01-Trouble Concentrating on Things", "PHQ-9", "Several days", "1", 1, "Y", 3, "BASELINE", "SCREENING", "2013-09-21", 1, "-P2W"]
["CDISCPILOT01", "QS", "CDISC017", 8, "PHQ0108", "PHQ01-Moving Slowly or Fidgety/Restless", "PHQ-9", "Several days", "1", 1, "Y", 3, "BASELINE", "SCREENING", "2013-09-21", 1, "-P2W"]
["CDISCPILOT01", "QS", "CDISC017", 9, "PHQ0109", "PHQ01-Thoughts You Be Better Off Dead", "PHQ-9", "Not at all", "0", 0, "Y", 3, "BASELINE", "SCREENING", "2013-09-21", 1, "-P2W"]
["CDISCPILOT01", "QS", "CDISC017", 10, "PHQ0110", "PHQ01-Difficult to Work/Take Care Things", "PHQ-9", "Somewhat difficult", "Somewhat difficult", null, "Y", 3, "BASELINE", "SCREENING", "2013-09-21", 1, "-P2W"]
["CDISCPILOT01", "QS", "CDISC017", 11, "PHQ0111", "PHQ01-Total Score", "PHQ-9", "8", "8", 8, "Y", 3, "BASELINE", "SCREENING", "2013-09-21", 1, "-P2W"]
["CDISCPILOT01", "QS", "CDISC017", 17, "PHQ0101", "PHQ01-Little Interest/Pleasure in Things", "PHQ-9", "Several days", "1", 1, "", 10, "WEEK 16", "TREATMENT", "2014-01-11", 113, "-P2W"]
["CDISCPILOT01", "QS", "CDISC017", 18, "PHQ0102", "PHQ01-Feeling Down Depressed or Hopeless", "PHQ-9", "Several days", "1", 1, "", 10, "WEEK 16", "TREATMENT", "2014-01-11", 113, "-P2W"]
["CDISCPILOT01", "QS", "CDISC017", 19, "PHQ0103", "PHQ01-Trouble Falling or Staying Asleep", "PHQ-9", "Several days", "1", 1, "", 10, "WEEK 16", "TREATMENT", "2014-01-11", 113, "-P2W"]
["CDISCPILOT01", "QS", "CDISC017", 20, "PHQ0104", "PHQ01-Feeling Tired or Little Energy", "PHQ-9", "Several days", "1", 1, "", 10, "WEEK 16", "TREATMENT", "2014-01-11", 113, "-P2W"]
["CDISCPILOT01", "QS", "CDISC017", 21, "PHQ0105", "PHQ01-Poor Appetite or Overeating", "PHQ-9", "Several days", "1", 1, "", 10, "WEEK 16", "TREATMENT", "2014-01-11", 113, "-P2W"]
["CDISCPILOT01", "QS", "CDISC017", 22, "PHQ0106", "PHQ01-Feeling Bad About Yourself", "PHQ-9", "Not at all", "0", 0, "", 10, "WEEK 16", "TREATMENT", "2014-01-11", 113, "-P2W"]
["CDISCPILOT01", "QS", "CDISC017", 23, "PHQ0107", "PHQ01-Trouble Concentrating on Things", "PHQ-9", "Several days", "1", 1, "", 10, "WEEK 16", "TREATMENT", "2014-01-11", 113, "-P2W"]
["CDISCPILOT01", "QS", "CDISC017", 24, "PHQ0108", "PHQ01-Moving Slowly or Fidgety/Restless", "PHQ-9", "Several days", "1", 1, "", 10, "WEEK 16", "TREATMENT", "2014-01-11", 113, "-P2W"]
["CDISCPILOT01", "QS", "CDISC017", 25, "PHQ0109", "PHQ01-Thoughts You Be Better Off Dead", "PHQ-9", "Not at all", "0", 0, "", 10, "WEEK 16", "TREATMENT", "2014-01-11", 113, "-P2W"]
["CDISCPILOT01", "QS", "CDISC017", 26, "PHQ0110", "PHQ01-Difficult to Work/Take Care Things", "PHQ-9", "Not difficult at all", "Not difficult at all", null, "", 10, "WEEK 16", "TREATMENT", "2014-01-11", 113, "-P2W"]
["CDISCPILOT01", "QS", "CDISC017", 27, "PHQ0111", "PHQ01-Total Score", "PHQ-9", "7", "7", 7, "", 10, "WEEK 16", "TREATMENT", "2014-01-11", 113, "-P2W"]
["CDISCPILOT01", "QS", "CDISC017", 33, "PHQ0101", "PHQ01-Little Interest/Pleasure in Things", "PHQ-9", "Several days", "1", 1, "", 11, "WEEK 20", "TREATMENT", "2014-02-08", 141, "-P2W"]
["CDISCPILOT01", "QS", "CDISC017", 34, "PHQ0102", "PHQ01-Feeling Down Depressed or Hopeless", "PHQ-9", "Several days", "1", 1, "", 11, "WEEK 20", "TREATMENT", "2014-02-08", 141, "-P2W"]
["CDISCPILOT01", "QS", "CDISC017", 35, "PHQ0103", "PHQ01-Trouble Falling or Staying Asleep", "PHQ-9", "Not at all", "0", 0, "", 11, "WEEK 20", "TREATMENT", "2014-02-08", 141, "-P2W"]
["CDISCPILOT01", "QS", "CDISC017", 36, "PHQ0104", "PHQ01-Feeling Tired or Little Energy", "PHQ-9", "Several days", "1", 1, "", 11, "WEEK 20", "TREATMENT", "2014-02-08", 141, "-P2W"]
["CDISCPILOT01", "QS", "CDISC017", 37, "PHQ0105", "PHQ01-Poor Appetite or Overeating", "PHQ-9", "Several days", "1", 1, "", 11, "WEEK 20", "TREATMENT", "2014-02-08", 141, "-P2W"]
["CDISCPILOT01", "QS", "CDISC017", 38, "PHQ0106", "PHQ01-Feeling Bad About Yourself", "PHQ-9", "Not at all", "0", 0, "", 11, "WEEK 20", "TREATMENT", "2014-02-08", 141, "-P2W"]
["CDISCPILOT01", "QS", "CDISC017", 39, "PHQ0107", "PHQ01-Trouble Concentrating on Things", "PHQ-9", "Not at all", "0", 0, "", 11, "WEEK 20", "TREATMENT", "2014-02-08", 141, "-P2W"]
["CDISCPILOT01", "QS", "CDISC017", 40, "PHQ0108", "PHQ01-Moving Slowly or Fidgety/Restless", "PHQ-9", "Several days", "1", 1, "", 11, "WEEK 20", "TREATMENT", "2014-02-08", 141, "-P2W"]
["CDISCPILOT01", "QS", "CDISC017", 41, "PHQ0109", "PHQ01-Thoughts You Be Better Off Dead", "PHQ-9", "Not at all", "0", 0, "", 11, "WEEK 20", "TREATMENT", "2014-02-08", 141, "-P2W"]
["CDISCPILOT01", "QS", "CDISC017", 42, "PHQ0110", "PHQ01-Difficult to Work/Take Care Things", "PHQ-9", "Not difficult at all", "Not difficult at all", null, "", 11, "WEEK 20", "TREATMENT", "2014-02-08", 141, "-P2W"]
["CDISCPILOT01", "QS", "CDISC017", 43, "PHQ0111", "PHQ01-Total Score", "PHQ-9", "5", "5", 5, "", 11, "WEEK 20", "TREATMENT", "2014-02-08", 141, "-P2W"]
["CDISCPILOT01", "QS", "CDISC017", 49, "PHQ0101", "PHQ01-Little Interest/Pleasure in Things", "PHQ-9", "Several days", "1", 1, "", 201, "EARLY DISCONTINUATION RETRIEVAL", "TREATMENT", "2014-03-08", 169, "-P2W"]
["CDISCPILOT01", "QS", "CDISC017", 50, "PHQ0102", "PHQ01-Feeling Down Depressed or Hopeless", "PHQ-9", "Several days", "1", 1, "", 201, "EARLY DISCONTINUATION RETRIEVAL", "TREATMENT", "2014-03-08", 169, "-P2W"]
["CDISCPILOT01", "QS", "CDISC017", 51, "PHQ0103", "PHQ01-Trouble Falling or Staying Asleep", "PHQ-9", "Not at all", "0", 0, "", 201, "EARLY DISCONTINUATION RETRIEVAL", "TREATMENT", "2014-03-08", 169, "-P2W"]
["CDISCPILOT01", "QS", "CDISC017", 52, "PHQ0104", "PHQ01-Feeling Tired or Little Energy", "PHQ-9", "Several days", "1", 1, "", 201, "EARLY DISCONTINUATION RETRIEVAL", "TREATMENT", "2014-03-08", 169, "-P2W"]
["CDISCPILOT01", "QS", "CDISC017", 53, "PHQ0105", "PHQ01-Poor Appetite or Overeating", "PHQ-9", "Several days", "1", 1, "", 201, "EARLY DISCONTINUATION RETRIEVAL", "TREATMENT", "2014-03-08", 169, "-P2W"]
["CDISCPILOT01", "QS", "CDISC017", 54, "PHQ0106", "PHQ01-Feeling Bad About Yourself", "PHQ-9", "Not at all", "0", 0, "", 201, "EARLY DISCONTINUATION RETRIEVAL", "TREATMENT", "2014-03-08", 169, "-P2W"]
["CDISCPILOT01", "QS", "CDISC017", 55, "PHQ0107", "PHQ01-Trouble Concentrating on Things", "PHQ-9", "Not at all", "0", 0, "", 201, "EARLY DISCONTINUATION RETRIEVAL", "TREATMENT", "2014-03-08", 169, "-P2W"]
["CDISCPILOT01", "QS", "CDISC017", 56, "PHQ0108", "PHQ01-Moving Slowly or Fidgety/Restless", "PHQ-9", "Several days", "1", 1, "", 201, "EARLY DISCONTINUATION RETRIEVAL", "TREATMENT", "2014-03-08", 169, "-P2W"]
["CDISCPILOT01", "QS", "CDISC017", 57, "PHQ0109", "PHQ01-Thoughts You Be Better Off Dead", "PHQ-9", "Not at all", "0", 0, "", 201, "EARLY DISCONTINUATION RETRIEVAL", "TREATMENT", "2014-03-08", 169, "-P2W"]
["CDISCPILOT01", "QS", "CDISC017", 58, "PHQ0110", "PHQ01-Difficult to Work/Take Care Things", "PHQ-9", "Not difficult at all", "Not difficult at all", null, "", 201, "EARLY DISCONTINUATION RETRIEVAL", "TREATMENT", "2014-03-08", 169, "-P2W"]
["CDISCPILOT01", "QS", "CDISC017", 59, "PHQ0111", "PHQ01-Total Score", "PHQ-9", "5", "5", 5, "", 201, "EARLY DISCONTINUATION RETRIEVAL", "TREATMENT", "2014-03-08", 169, "-P2W"]
["CDISCPILOT01", "QS", "CDISC018", 1, "PHQ0101", "PHQ01-Little Interest/Pleasure in Things", "PHQ-9", "More than half the days", "2", 2, "Y", 3, "BASELINE", "SCREENING", "2012-12-17", 1, "-P2W"]
["CDISCPILOT01", "QS", "CDISC018", 2, "PHQ0102", "PHQ01-Feeling Down Depressed or Hopeless", "PHQ-9", "More than half the days", "2", 2, "Y", 3, "BASELINE", "SCREENING", "2012-12-17", 1, "-P2W"]
["CDISCPILOT01", "QS", "CDISC018", 3, "PHQ0103", "PHQ01-Trouble Falling or Staying Asleep", "PHQ-9", "More than half the days", "2", 2, "Y", 3, "BASELINE", "SCREENING", "2012-12-17", 1, "-P2W"]
["CDISCPILOT01", "QS", "CDISC018", 4, "PHQ0104", "PHQ01-Feeling Tired or Little Energy", "PHQ-9", "More than half the days", "2", 2, "Y", 3, "BASELINE", "SCREENING", "2012-12-17", 1, "-P2W"]
["CDISCPILOT01", "QS", "CDISC018", 5, "PHQ0105", "PHQ01-Poor Appetite or Overeating", "PHQ-9", "Nearly every day", "3", 3, "Y", 3, "BASELINE", "SCREENING", "2012-12-17", 1, "-P2W"]
["CDISCPILOT01", "QS", "CDISC018", 6, "PHQ0106", "PHQ01-Feeling Bad About Yourself", "PHQ-9", "Nearly every day", "3", 3, "Y", 3, "BASELINE", "SCREENING", "2012-12-17", 1, "-P2W"]
["CDISCPILOT01", "QS", "CDISC018", 7, "PHQ0107", "PHQ01-Trouble Concentrating on Things", "PHQ-9", "More than half the days", "2", 2, "Y", 3, "BASELINE", "SCREENING", "2012-12-17", 1, "-P2W"]
["CDISCPILOT01", "QS", "CDISC018", 8, "PHQ0108", "PHQ01-Moving Slowly or Fidgety/Restless", "PHQ-9", "Nearly every day", "3", 3, "Y", 3, "BASELINE", "SCREENING", "2012-12-17", 1, "-P2W"]
["CDISCPILOT01", "QS", "CDISC018", 9, "PHQ0109", "PHQ01-Thoughts You Be Better Off Dead", "PHQ-9", "More than half the days", "2", 2, "Y", 3, "BASELINE", "SCREENING", "2012-12-17", 1, "-P2W"]
["CDISCPILOT01", "QS", "CDISC018", 10, "PHQ0110", "PHQ01-Difficult to Work/Take Care Things", "PHQ-9", "Somewhat difficult", "Somewhat difficult", null, "Y", 3, "BASELINE", "SCREENING", "2012-12-17", 1, "-P2W"]
["CDISCPILOT01", "QS", "CDISC018", 11, "PHQ0111", "PHQ01-Total Score", "PHQ-9", "21", "21", 21, "Y", 3, "BASELINE", "SCREENING", "2012-12-17", 1, "-P2W"]
["CDISCPILOT01", "QS", "CDISC018", 17, "PHQ0101", "PHQ01-Little Interest/Pleasure in Things", "PHQ-9", "More than half the days", "2", 2, "", 201, "EARLY DISCONTINUATION RETRIEVAL", "TREATMENT", "2013-06-03", 169, "-P2W"]
["CDISCPILOT01", "QS", "CDISC018", 18, "PHQ0102", "PHQ01-Feeling Down Depressed or Hopeless", "PHQ-9", "More than half the days", "2", 2, "", 201, "EARLY DISCONTINUATION RETRIEVAL", "TREATMENT", "2013-06-03", 169, "-P2W"]
["CDISCPILOT01", "QS", "CDISC018", 19, "PHQ0103", "PHQ01-Trouble Falling or Staying Asleep", "PHQ-9", "More than half the days", "2", 2, "", 201, "EARLY DISCONTINUATION RETRIEVAL", "TREATMENT", "2013-06-03", 169, "-P2W"]
["CDISCPILOT01", "QS", "CDISC018", 20, "PHQ0104", "PHQ01-Feeling Tired or Little Energy", "PHQ-9", "More than half the days", "2", 2, "", 201, "EARLY DISCONTINUATION RETRIEVAL", "TREATMENT", "2013-06-03", 169, "-P2W"]
["CDISCPILOT01", "QS", "CDISC018", 21, "PHQ0105", "PHQ01-Poor Appetite or Overeating", "PHQ-9", "Nearly every day", "3", 3, "", 201, "EARLY DISCONTINUATION RETRIEVAL", "TREATMENT", "2013-06-03", 169, "-P2W"]
["CDISCPILOT01", "QS", "CDISC018", 22, "PHQ0106", "PHQ01-Feeling Bad About Yourself", "PHQ-9", "Nearly every day", "3", 3, "", 201, "EARLY DISCONTINUATION RETRIEVAL", "TREATMENT", "2013-06-03", 169, "-P2W"]
["CDISCPILOT01", "QS", "CDISC018", 23, "PHQ0107", "PHQ01-Trouble Concentrating on Things", "PHQ-9", "More than half the days", "2", 2, "", 201, "EARLY DISCONTINUATION RETRIEVAL", "TREATMENT", "2013-06-03", 169, "-P2W"]
["CDISCPILOT01", "QS", "CDISC018", 24, "PHQ0108", "PHQ01-Moving Slowly or Fidgety/Restless", "PHQ-9", "Nearly every day", "3", 3, "", 201, "EARLY DISCONTINUATION RETRIEVAL", "TREATMENT", "2013-06-03", 169, "-P2W"]
["CDISCPILOT01", "QS", "CDISC018", 25, "PHQ0109", "PHQ01-Thoughts You Be Better Off Dead", "PHQ-9", "More than half the days", "2", 2, "", 201, "EARLY DISCONTINUATION RETRIEVAL", "TREATMENT", "2013-06-03", 169, "-P2W"]
["CDISCPILOT01", "QS", "CDISC018", 26, "PHQ0110", "PHQ01-Difficult to Work/Take Care Things", "PHQ-9", "Somewhat difficult", "Somewhat difficult", null, "", 201, "EARLY DISCONTINUATION RETRIEVAL", "TREATMENT", "2013-06-03", 169, "-P2W"]
["CDISCPILOT01", "QS", "CDISC018", 27, "PHQ0111", "PHQ01-Total Score", "PHQ-9", "21", "21", 21, "", 201, "EARLY DISCONTINUATION RETRIEVAL", "TREATMENT", "2013-06-03", 169, "-P2W"]
