{
    "asOfDateTime": "2023-05-31T00:00:00",
    "columns": [
        {
            "dataType": "integer",
            "displayFormat": "",
            "itemOID": "ITEMGROUPDATASEQ",
            "keySequence": 0,
            "label": "Record Identifier",
            "length": 0,
            "name": "ITEMGROUPDATASEQ",
            "targetDataType": "integer"
        },
        {
            "dataType": "string",
            "displayFormat": "",
            "itemOID": "IT.QSSL.STUDYID",
            "keySequence": 1,
            "label": "Study Identifier",
            "length": 12,
            "name": "STUDYID",
            "targetDataType": "string"
        },
        {
            "dataType": "string",
            "displayFormat": "",
            "itemOID": "IT.QSSL.DOMAIN",
            "keySequence": 0,
            "label": "Domain Abbreviation",
            "length": 4,
            "name": "DOMAIN",
            "targetDataType": "string"
        },
        {
            "dataType": "string",
            "displayFormat": "",
            "itemOID": "IT.QSSL.USUBJID",
            "keySequence": 2,
            "label": "Unique Subject Identifier",
            "length": 8,
            "name": "USUBJID",
            "targetDataType": "string"
        },
        {
            "dataType": "integer",
            "displayFormat": "",
            "itemOID": "IT.QSSL.QSSEQ",
            "keySequence": 0,
            "label": "Sequence Number",
            "length": 3,
            "name": "QSSEQ",
            "targetDataType": "integer"
        },
        {
            "dataType": "string",
            "displayFormat": "",
            "itemOID": "IT.QSSL.QSTESTCD",
            "keySequence": 3,
            "label": "Question Short Name",
            "length": 8,
            "name": "QSTESTCD",
            "targetDataType": "string"
        },
        {
            "dataType": "string",
            "displayFormat": "",
            "itemOID": "IT.QSSL.QSTEST",
            "keySequence": 0,
            "label": "Question Name",
            "length": 39,
            "name": "QSTEST",
            "targetDataType": "string"
        },
        {
            "dataType": "string",
            "displayFormat": "",
            "itemOID": "IT.QSSL.QSCAT",
            "keySequence": 0,
            "label": "Category of Question",
            "length": 4,
            "name": "QSCAT",
            "targetDataType": "string"
        },
        {
            "dataType": "string",
            "displayFormat": "",
            "itemOID": "IT.QSSL.QSORRES",
            "keySequence": 0,
            "label": "Finding in Original Units",
            "length": 26,
            "name": "QSORRES",
            "targetDataType": "string"
        },
        {
            "dataType": "string",
            "displayFormat": "",
            "itemOID": "IT.QSSL.QSSTRESC",
            "keySequence": 0,
            "label": "Character Result/Finding in Std Format",
            "length": 1,
            "name": "QSSTRESC",
            "targetDataType": "string"
        },
        {
            "dataType": "integer",
            "displayFormat": "",
            "itemOID": "IT.QSSL.QSSTRESN",
            "keySequence": 0,
            "label": "Numeric Finding in Standard Units",
            "length": 8,
            "name": "QSSTRESN",
            "targetDataType": "integer"
        },
        {
            "dataType": "string",
            "displayFormat": "",
            "itemOID": "IT.QSSL.QSLOBXFL",
            "keySequence": 0,
            "label": "Last Observation Before Exposure Flag",
            "length": 1,
            "name": "QSLOBXFL",
            "targetDataType": "string"
        },
        {
            "dataType": "decimal",
            "displayFormat": "",
            "itemOID": "IT.QSSL.VISITNUM",
            "keySequence": 4,
            "label": "Visit Number",
            "length": 8,
            "name": "VISITNUM",
            "targetDataType": "decimal"
        },
        {
            "dataType": "string",
            "displayFormat": "",
            "itemOID": "IT.QSSL.VISIT",
            "keySequence": 0,
            "label": "Visit Name",
            "length": 200,
            "name": "VISIT",
            "targetDataType": "string"
        },
        {
            "dataType": "string",
            "displayFormat": "",
            "itemOID": "IT.QSSL.EPOCH",
            "keySequence": 0,
            "label": "Epoch",
            "length": 9,
            "name": "EPOCH",
            "targetDataType": "string"
        },
        {
            "dataType": "string",
            "displayFormat": "",
            "itemOID": "IT.QSSL.QSDTC",
            "keySequence": 0,
            "label": "Date/Time of Finding",
            "length": 0,
            "name": "QSDTC",
            "targetDataType": "string"
        },
        {
            "dataType": "integer",
            "displayFormat": "",
            "itemOID": "IT.QSSL.QSDY",
            "keySequence": 0,
            "label": "Study Day of Finding",
            "length": 8,
            "name": "QSDY",
            "targetDataType": "integer"
        }
    ],
    "creationDateTime": "2023-06-28T15:38:43",
    "datasetJSONVersion": "1.0.0",
    "fileOID": "www.cdisc.org/StudyMSGv2/1/Define-XML_2.1.0/2023-06-28/qssl",
    "label": "Questionnaires (SQLS)",
    "metaDataRef": "",
    "metaDataVersionOID": "",
    "name": "QSSL",
    "originator": "CDISC SDTM MSG Team",
    "records": 135,
    "sourceSystem": "Sponsor System",
    "sourceSystemVersion": "1.0",
    "studyOID": "",
    "itemGroupOID": "IG.QSSL",
    "rows": [
        [
            1,
            "CDISCPILOT01",
            "QS",
            "CDISC001",
            12,
            "SWLS0101",
            "SWLS01-My Life is Close to Ideal",
            "SWLS",
            "Slightly agree",
            "5",
            5,
            "Y",
            3,
            "BASELINE",
            "SCREENING",
            "2012-11-30",
            1
        ],
        [
            2,
            "CDISCPILOT01",
            "QS",
            "CDISC001",
            13,
            "SWLS0102",
            "SWLS01-My Life Conditions are Excellent",
            "SWLS",
            "Agree",
            "6",
            6,
            "Y",
            3,
            "BASELINE",
            "SCREENING",
            "2012-11-30",
            1
        ],
        [
            3,
            "CDISCPILOT01",
            "QS",
            "CDISC001",
            14,
            "SWLS0103",
            "SWLS01-I Am Satisfied with My Life",
            "SWLS",
            "Neither agree nor disagree",
            "4",
            4,
            "Y",
            3,
            "BASELINE",
            "SCREENING",
            "2012-11-30",
            1
        ],
        [
            4,
            "CDISCPILOT01",
            "QS",
            "CDISC001",
            15,
            "SWLS0104",
            "SWLS01-Have Gotten Important Things",
            "SWLS",
            "Agree",
            "6",
            6,
            "Y",
            3,
            "BASELINE",
            "SCREENING",
            "2012-11-30",
            1
        ],
        [
            5,
            "CDISCPILOT01",
            "QS",
            "CDISC001",
            16,
            "SWLS0105",
            "SWLS01-Live Life Over Change Nothing",
            "SWLS",
            "Agree",
            "6",
            6,
            "Y",
            3,
            "BASELINE",
            "SCREENING",
            "2012-11-30",
            1
        ],
        [
            6,
            "CDISCPILOT01",
            "QS",
            "CDISC001",
            28,
            "SWLS0101",
            "SWLS01-My Life is Close to Ideal",
            "SWLS",
            "Agree",
            "6",
            6,
            "",
            201,
            "EARLY DISCONTINUATION RETRIEVAL",
            "TREATMENT",
            "2013-05-20",
            172
        ],
        [
            7,
            "CDISCPILOT01",
            "QS",
            "CDISC001",
            29,
            "SWLS0102",
            "SWLS01-My Life Conditions are Excellent",
            "SWLS",
            "Agree",
            "6",
            6,
            "",
            201,
            "EARLY DISCONTINUATION RETRIEVAL",
            "TREATMENT",
            "2013-05-20",
            172
        ],
        [
            8,
            "CDISCPILOT01",
            "QS",
            "CDISC001",
            30,
            "SWLS0103",
            "SWLS01-I Am Satisfied with My Life",
            "SWLS",
            "Slightly agree",
            "5",
            5,
            "",
            201,
            "EARLY DISCONTINUATION RETRIEVAL",
            "TREATMENT",
            "2013-05-20",
            172
        ],
        [
            9,
            "CDISCPILOT01",
            "QS",
            "CDISC001",
            31,
            "SWLS0104",
            "SWLS01-Have Gotten Important Things",
            "SWLS",
            "Agree",
            "6",
            6,
            "",
            201,
            "EARLY DISCONTINUATION RETRIEVAL",
            "TREATMENT",
            "2013-05-20",
            172
        ],
        [
            10,
            "CDISCPILOT01",
            "QS",
            "CDISC001",
            32,
            "SWLS0105",
            "SWLS01-Live Life Over Change Nothing",
            "SWLS",
            "Agree",
            "6",
            6,
            "",
            201,
            "EARLY DISCONTINUATION RETRIEVAL",
            "TREATMENT",
            "2013-05-20",
            172
        ],
        [
            11,
            "CDISCPILOT01",
            "QS",
            "CDISC002",
            12,
            "SWLS0101",
            "SWLS01-My Life is Close to Ideal",
            "SWLS",
            "Neither agree nor disagree",
            "4",
            4,
            "Y",
            3,
            "BASELINE",
            "SCREENING",
            "2012-11-15",
            1
        ],
        [
            12,
            "CDISCPILOT01",
            "QS",
            "CDISC002",
            13,
            "SWLS0102",
            "SWLS01-My Life Conditions are Excellent",
            "SWLS",
            "Slightly disagree",
            "3",
            3,
            "Y",
            3,
            "BASELINE",
            "SCREENING",
            "2012-11-15",
            1
        ],
        [
            13,
            "CDISCPILOT01",
            "QS",
            "CDISC002",
            14,
            "SWLS0103",
            "SWLS01-I Am Satisfied with My Life",
            "SWLS",
            "Neither agree nor disagree",
            "4",
            4,
            "Y",
            3,
            "BASELINE",
            "SCREENING",
            "2012-11-15",
            1
        ],
        [
            14,
            "CDISCPILOT01",
            "QS",
            "CDISC002",
            15,
            "SWLS0104",
            "SWLS01-Have Gotten Important Things",
            "SWLS",
            "Neither agree nor disagree",
            "4",
            4,
            "Y",
            3,
            "BASELINE",
            "SCREENING",
            "2012-11-15",
            1
        ],
        [
            15,
            "CDISCPILOT01",
            "QS",
            "CDISC002",
            16,
            "SWLS0105",
            "SWLS01-Live Life Over Change Nothing",
            "SWLS",
            "Neither agree nor disagree",
            "4",
            4,
            "Y",
            3,
            "BASELINE",
            "SCREENING",
            "2012-11-15",
            1
        ],
        [
            16,
            "CDISCPILOT01",
            "QS",
            "CDISC003",
            12,
            "SWLS0101",
            "SWLS01-My Life is Close to Ideal",
            "SWLS",
            "Neither agree nor disagree",
            "4",
            4,
            "Y",
            3,
            "BASELINE",
            "SCREENING",
            "2013-08-29",
            1
        ],
        [
            17,
            "CDISCPILOT01",
            "QS",
            "CDISC003",
            13,
            "SWLS0102",
            "SWLS01-My Life Conditions are Excellent",
            "SWLS",
            "Slightly agree",
            "5",
            5,
            "Y",
            3,
            "BASELINE",
            "SCREENING",
            "2013-08-29",
            1
        ],
        [
            18,
            "CDISCPILOT01",
            "QS",
            "CDISC003",
            14,
            "SWLS0103",
            "SWLS01-I Am Satisfied with My Life",
            "SWLS",
            "Agree",
            "6",
            6,
            "Y",
            3,
            "BASELINE",
            "SCREENING",
            "2013-08-29",
            1
        ],
        [
            19,
            "CDISCPILOT01",
            "QS",
            "CDISC003",
            15,
            "SWLS0104",
            "SWLS01-Have Gotten Important Things",
            "SWLS",
            "Slightly agree",
            "5",
            5,
            "Y",
            3,
            "BASELINE",
            "SCREENING",
            "2013-08-29",
            1
        ],
        [
            20,
            "CDISCPILOT01",
            "QS",
            "CDISC003",
            16,
            "SWLS0105",
            "SWLS01-Live Life Over Change Nothing",
            "SWLS",
            "Agree",
            "6",
            6,
            "Y",
            3,
            "BASELINE",
            "SCREENING",
            "2013-08-29",
            1
        ],
        [
            21,
            "CDISCPILOT01",
            "QS",
            "CDISC003",
            28,
            "SWLS0101",
            "SWLS01-My Life is Close to Ideal",
            "SWLS",
            "Slightly agree",
            "5",
            5,
            "",
            9,
            "WEEK 12",
            "TREATMENT",
            "2013-11-05",
            69
        ],
        [
            22,
            "CDISCPILOT01",
            "QS",
            "CDISC003",
            29,
            "SWLS0102",
            "SWLS01-My Life Conditions are Excellent",
            "SWLS",
            "Slightly agree",
            "5",
            5,
            "",
            9,
            "WEEK 12",
            "TREATMENT",
            "2013-11-05",
            69
        ],
        [
            23,
            "CDISCPILOT01",
            "QS",
            "CDISC003",
            30,
            "SWLS0103",
            "SWLS01-I Am Satisfied with My Life",
            "SWLS",
            "Agree",
            "6",
            6,
            "",
            9,
            "WEEK 12",
            "TREATMENT",
            "2013-11-05",
            69
        ],
        [
            24,
            "CDISCPILOT01",
            "QS",
            "CDISC003",
            31,
            "SWLS0104",
            "SWLS01-Have Gotten Important Things",
            "SWLS",
            "Slightly agree",
            "5",
            5,
            "",
            9,
            "WEEK 12",
            "TREATMENT",
            "2013-11-05",
            69
        ],
        [
            25,
            "CDISCPILOT01",
            "QS",
            "CDISC003",
            32,
            "SWLS0105",
            "SWLS01-Live Life Over Change Nothing",
            "SWLS",
            "Agree",
            "6",
            6,
            "",
            9,
            "WEEK 12",
            "TREATMENT",
            "2013-11-05",
            69
        ],
        [
            26,
            "CDISCPILOT01",
            "QS",
            "CDISC003",
            44,
            "SWLS0101",
            "SWLS01-My Life is Close to Ideal",
            "SWLS",
            "Slightly agree",
            "5",
            5,
            "",
            201,
            "EARLY DISCONTINUATION RETRIEVAL",
            "TREATMENT",
            "2014-02-13",
            169
        ],
        [
            27,
            "CDISCPILOT01",
            "QS",
            "CDISC003",
            45,
            "SWLS0102",
            "SWLS01-My Life Conditions are Excellent",
            "SWLS",
            "Slightly agree",
            "5",
            5,
            "",
            201,
            "EARLY DISCONTINUATION RETRIEVAL",
            "TREATMENT",
            "2014-02-13",
            169
        ],
        [
            28,
            "CDISCPILOT01",
            "QS",
            "CDISC003",
            46,
            "SWLS0103",
            "SWLS01-I Am Satisfied with My Life",
            "SWLS",
            "Agree",
            "6",
            6,
            "",
            201,
            "EARLY DISCONTINUATION RETRIEVAL",
            "TREATMENT",
            "2014-02-13",
            169
        ],
        [
            29,
            "CDISCPILOT01",
            "QS",
            "CDISC003",
            47,
            "SWLS0104",
            "SWLS01-Have Gotten Important Things",
            "SWLS",
            "Slightly agree",
            "5",
            5,
            "",
            201,
            "EARLY DISCONTINUATION RETRIEVAL",
            "TREATMENT",
            "2014-02-13",
            169
        ],
        [
            30,
            "CDISCPILOT01",
            "QS",
            "CDISC003",
            48,
            "SWLS0105",
            "SWLS01-Live Life Over Change Nothing",
            "SWLS",
            "Agree",
            "6",
            6,
            "",
            201,
            "EARLY DISCONTINUATION RETRIEVAL",
            "TREATMENT",
            "2014-02-13",
            169
        ],
        [
            31,
            "CDISCPILOT01",
            "QS",
            "CDISC004",
            12,
            "SWLS0101",
            "SWLS01-My Life is Close to Ideal",
            "SWLS",
            "Disagree",
            "2",
            2,
            "Y",
            3,
            "BASELINE",
            "SCREENING",
            "2013-10-08",
            1
        ],
        [
            32,
            "CDISCPILOT01",
            "QS",
            "CDISC004",
            13,
            "SWLS0102",
            "SWLS01-My Life Conditions are Excellent",
            "SWLS",
            "Slightly disagree",
            "3",
            3,
            "Y",
            3,
            "BASELINE",
            "SCREENING",
            "2013-10-08",
            1
        ],
        [
            33,
            "CDISCPILOT01",
            "QS",
            "CDISC004",
            14,
            "SWLS0103",
            "SWLS01-I Am Satisfied with My Life",
            "SWLS",
            "Neither agree nor disagree",
            "4",
            4,
            "Y",
            3,
            "BASELINE",
            "SCREENING",
            "2013-10-08",
            1
        ],
        [
            34,
            "CDISCPILOT01",
            "QS",
            "CDISC004",
            15,
            "SWLS0104",
            "SWLS01-Have Gotten Important Things",
            "SWLS",
            "Slightly disagree",
            "3",
            3,
            "Y",
            3,
            "BASELINE",
            "SCREENING",
            "2013-10-08",
            1
        ],
        [
            35,
            "CDISCPILOT01",
            "QS",
            "CDISC004",
            16,
            "SWLS0105",
            "SWLS01-Live Life Over Change Nothing",
            "SWLS",
            "Slightly disagree",
            "3",
            3,
            "Y",
            3,
            "BASELINE",
            "SCREENING",
            "2013-10-08",
            1
        ],
        [
            36,
            "CDISCPILOT01",
            "QS",
            "CDISC007",
            12,
            "SWLS0101",
            "SWLS01-My Life is Close to Ideal",
            "SWLS",
            "Neither agree nor disagree",
            "4",
            4,
            "Y",
            3,
            "BASELINE",
            "SCREENING",
            "2013-01-05",
            1
        ],
        [
            37,
            "CDISCPILOT01",
            "QS",
            "CDISC007",
            13,
            "SWLS0102",
            "SWLS01-My Life Conditions are Excellent",
            "SWLS",
            "Slightly agree",
            "5",
            5,
            "Y",
            3,
            "BASELINE",
            "SCREENING",
            "2013-01-05",
            1
        ],
        [
            38,
            "CDISCPILOT01",
            "QS",
            "CDISC007",
            14,
            "SWLS0103",
            "SWLS01-I Am Satisfied with My Life",
            "SWLS",
            "Agree",
            "6",
            6,
            "Y",
            3,
            "BASELINE",
            "SCREENING",
            "2013-01-05",
            1
        ],
        [
            39,
            "CDISCPILOT01",
            "QS",
            "CDISC007",
            15,
            "SWLS0104",
            "SWLS01-Have Gotten Important Things",
            "SWLS",
            "Agree",
            "6",
            6,
            "Y",
            3,
            "BASELINE",
            "SCREENING",
            "2013-01-05",
            1
        ],
        [
            40,
            "CDISCPILOT01",
            "QS",
            "CDISC007",
            16,
            "SWLS0105",
            "SWLS01-Live Life Over Change Nothing",
            "SWLS",
            "Slightly agree",
            "5",
            5,
            "Y",
            3,
            "BASELINE",
            "SCREENING",
            "2013-01-05",
            1
        ],
        [
            41,
            "CDISCPILOT01",
            "QS",
            "CDISC008",
            12,
            "SWLS0101",
            "SWLS01-My Life is Close to Ideal",
            "SWLS",
            "Slightly agree",
            "5",
            5,
            "Y",
            3,
            "BASELINE",
            "SCREENING",
            "2014-05-11",
            1
        ],
        [
            42,
            "CDISCPILOT01",
            "QS",
            "CDISC008",
            13,
            "SWLS0102",
            "SWLS01-My Life Conditions are Excellent",
            "SWLS",
            "Agree",
            "6",
            6,
            "Y",
            3,
            "BASELINE",
            "SCREENING",
            "2014-05-11",
            1
        ],
        [
            43,
            "CDISCPILOT01",
            "QS",
            "CDISC008",
            14,
            "SWLS0103",
            "SWLS01-I Am Satisfied with My Life",
            "SWLS",
            "Slightly agree",
            "5",
            5,
            "Y",
            3,
            "BASELINE",
            "SCREENING",
            "2014-05-11",
            1
        ],
        [
            44,
            "CDISCPILOT01",
            "QS",
            "CDISC008",
            15,
            "SWLS0104",
            "SWLS01-Have Gotten Important Things",
            "SWLS",
            "Slightly agree",
            "5",
            5,
            "Y",
            3,
            "BASELINE",
            "SCREENING",
            "2014-05-11",
            1
        ],
        [
            45,
            "CDISCPILOT01",
            "QS",
            "CDISC008",
            16,
            "SWLS0105",
            "SWLS01-Live Life Over Change Nothing",
            "SWLS",
            "Slightly agree",
            "5",
            5,
            "Y",
            3,
            "BASELINE",
            "SCREENING",
            "2014-05-11",
            1
        ],
        [
            46,
            "CDISCPILOT01",
            "QS",
            "CDISC008",
            28,
            "SWLS0101",
            "SWLS01-My Life is Close to Ideal",
            "SWLS",
            "Slightly agree",
            "5",
            5,
            "",
            10,
            "WEEK 16",
            "TREATMENT",
            "2014-09-03",
            116
        ],
        [
            47,
            "CDISCPILOT01",
            "QS",
            "CDISC008",
            29,
            "SWLS0102",
            "SWLS01-My Life Conditions are Excellent",
            "SWLS",
            "Agree",
            "6",
            6,
            "",
            10,
            "WEEK 16",
            "TREATMENT",
            "2014-09-03",
            116
        ],
        [
            48,
            "CDISCPILOT01",
            "QS",
            "CDISC008",
            30,
            "SWLS0103",
            "SWLS01-I Am Satisfied with My Life",
            "SWLS",
            "Slightly agree",
            "5",
            5,
            "",
            10,
            "WEEK 16",
            "TREATMENT",
            "2014-09-03",
            116
        ],
        [
            49,
            "CDISCPILOT01",
            "QS",
            "CDISC008",
            31,
            "SWLS0104",
            "SWLS01-Have Gotten Important Things",
            "SWLS",
            "Slightly agree",
            "5",
            5,
            "",
            10,
            "WEEK 16",
            "TREATMENT",
            "2014-09-03",
            116
        ],
        [
            50,
            "CDISCPILOT01",
            "QS",
            "CDISC008",
            32,
            "SWLS0105",
            "SWLS01-Live Life Over Change Nothing",
            "SWLS",
            "Slightly agree",
            "5",
            5,
            "",
            10,
            "WEEK 16",
            "TREATMENT",
            "2014-09-03",
            116
        ],
        [
            51,
            "CDISCPILOT01",
            "QS",
            "CDISC009",
            12,
            "SWLS0101",
            "SWLS01-My Life is Close to Ideal",
            "SWLS",
            "Slightly disagree",
            "3",
            3,
            "Y",
            3,
            "BASELINE",
            "SCREENING",
            "2012-10-22",
            1
        ],
        [
            52,
            "CDISCPILOT01",
            "QS",
            "CDISC009",
            13,
            "SWLS0102",
            "SWLS01-My Life Conditions are Excellent",
            "SWLS",
            "Neither agree nor disagree",
            "4",
            4,
            "Y",
            3,
            "BASELINE",
            "SCREENING",
            "2012-10-22",
            1
        ],
        [
            53,
            "CDISCPILOT01",
            "QS",
            "CDISC009",
            14,
            "SWLS0103",
            "SWLS01-I Am Satisfied with My Life",
            "SWLS",
            "Slightly agree",
            "5",
            5,
            "Y",
            3,
            "BASELINE",
            "SCREENING",
            "2012-10-22",
            1
        ],
        [
            54,
            "CDISCPILOT01",
            "QS",
            "CDISC009",
            15,
            "SWLS0104",
            "SWLS01-Have Gotten Important Things",
            "SWLS",
            "Neither agree nor disagree",
            "4",
            4,
            "Y",
            3,
            "BASELINE",
            "SCREENING",
            "2012-10-22",
            1
        ],
        [
            55,
            "CDISCPILOT01",
            "QS",
            "CDISC009",
            16,
            "SWLS0105",
            "SWLS01-Live Life Over Change Nothing",
            "SWLS",
            "Agree",
            "6",
            6,
            "Y",
            3,
            "BASELINE",
            "SCREENING",
            "2012-10-22",
            1
        ],
        [
            56,
            "CDISCPILOT01",
            "QS",
            "CDISC009",
            28,
            "SWLS0101",
            "SWLS01-My Life is Close to Ideal",
            "SWLS",
            "Slightly disagree",
            "3",
            3,
            "",
            10,
            "WEEK 16",
            "TREATMENT",
            "2013-02-16",
            118
        ],
        [
            57,
            "CDISCPILOT01",
            "QS",
            "CDISC009",
            29,
            "SWLS0102",
            "SWLS01-My Life Conditions are Excellent",
            "SWLS",
            "Neither agree nor disagree",
            "4",
            4,
            "",
            10,
            "WEEK 16",
            "TREATMENT",
            "2013-02-16",
            118
        ],
        [
            58,
            "CDISCPILOT01",
            "QS",
            "CDISC009",
            30,
            "SWLS0103",
            "SWLS01-I Am Satisfied with My Life",
            "SWLS",
            "Slightly agree",
            "5",
            5,
            "",
            10,
            "WEEK 16",
            "TREATMENT",
            "2013-02-16",
            118
        ],
        [
            59,
            "CDISCPILOT01",
            "QS",
            "CDISC009",
            31,
            "SWLS0104",
            "SWLS01-Have Gotten Important Things",
            "SWLS",
            "Slightly agree",
            "5",
            5,
            "",
            10,
            "WEEK 16",
            "TREATMENT",
            "2013-02-16",
            118
        ],
        [
            60,
            "CDISCPILOT01",
            "QS",
            "CDISC009",
            32,
            "SWLS0105",
            "SWLS01-Live Life Over Change Nothing",
            "SWLS",
            "Agree",
            "6",
            6,
            "",
            10,
            "WEEK 16",
            "TREATMENT",
            "2013-02-16",
            118
        ],
        [
            61,
            "CDISCPILOT01",
            "QS",
            "CDISC009",
            44,
            "SWLS0101",
            "SWLS01-My Life is Close to Ideal",
            "SWLS",
            "Slightly disagree",
            "3",
            3,
            "",
            12,
            "WEEK 24",
            "TREATMENT",
            "2013-04-10",
            171
        ],
        [
            62,
            "CDISCPILOT01",
            "QS",
            "CDISC009",
            45,
            "SWLS0102",
            "SWLS01-My Life Conditions are Excellent",
            "SWLS",
            "Neither agree nor disagree",
            "4",
            4,
            "",
            12,
            "WEEK 24",
            "TREATMENT",
            "2013-04-10",
            171
        ],
        [
            63,
            "CDISCPILOT01",
            "QS",
            "CDISC009",
            46,
            "SWLS0103",
            "SWLS01-I Am Satisfied with My Life",
            "SWLS",
            "Slightly agree",
            "5",
            5,
            "",
            12,
            "WEEK 24",
            "TREATMENT",
            "2013-04-10",
            171
        ],
        [
            64,
            "CDISCPILOT01",
            "QS",
            "CDISC009",
            47,
            "SWLS0104",
            "SWLS01-Have Gotten Important Things",
            "SWLS",
            "Slightly agree",
            "5",
            5,
            "",
            12,
            "WEEK 24",
            "TREATMENT",
            "2013-04-10",
            171
        ],
        [
            65,
            "CDISCPILOT01",
            "QS",
            "CDISC009",
            48,
            "SWLS0105",
            "SWLS01-Live Life Over Change Nothing",
            "SWLS",
            "Agree",
            "6",
            6,
            "",
            12,
            "WEEK 24",
            "TREATMENT",
            "2013-04-10",
            171
        ],
        [
            66,
            "CDISCPILOT01",
            "QS",
            "CDISC011",
            12,
            "SWLS0101",
            "SWLS01-My Life is Close to Ideal",
            "SWLS",
            "Slightly disagree",
            "3",
            3,
            "",
            3,
            "BASELINE",
            "SCREENING",
            "2012-12-07",
            1
        ],
        [
            67,
            "CDISCPILOT01",
            "QS",
            "CDISC011",
            13,
            "SWLS0102",
            "SWLS01-My Life Conditions are Excellent",
            "SWLS",
            "Neither agree nor disagree",
            "4",
            4,
            "",
            3,
            "BASELINE",
            "SCREENING",
            "2012-12-07",
            1
        ],
        [
            68,
            "CDISCPILOT01",
            "QS",
            "CDISC011",
            14,
            "SWLS0103",
            "SWLS01-I Am Satisfied with My Life",
            "SWLS",
            "Neither agree nor disagree",
            "4",
            4,
            "",
            3,
            "BASELINE",
            "SCREENING",
            "2012-12-07",
            1
        ],
        [
            69,
            "CDISCPILOT01",
            "QS",
            "CDISC011",
            15,
            "SWLS0104",
            "SWLS01-Have Gotten Important Things",
            "SWLS",
            "Slightly disagree",
            "3",
            3,
            "",
            3,
            "BASELINE",
            "SCREENING",
            "2012-12-07",
            1
        ],
        [
            70,
            "CDISCPILOT01",
            "QS",
            "CDISC011",
            16,
            "SWLS0105",
            "SWLS01-Live Life Over Change Nothing",
            "SWLS",
            "Neither agree nor disagree",
            "4",
            4,
            "",
            3,
            "BASELINE",
            "SCREENING",
            "2012-12-07",
            1
        ],
        [
            71,
            "CDISCPILOT01",
            "QS",
            "CDISC011",
            39,
            "SWLS0101",
            "SWLS01-My Life is Close to Ideal",
            "SWLS",
            "Slightly disagree",
            "3",
            3,
            "",
            12,
            "WEEK 24",
            "TREATMENT",
            "2013-05-22",
            167
        ],
        [
            72,
            "CDISCPILOT01",
            "QS",
            "CDISC011",
            40,
            "SWLS0102",
            "SWLS01-My Life Conditions are Excellent",
            "SWLS",
            "Neither agree nor disagree",
            "4",
            4,
            "",
            12,
            "WEEK 24",
            "TREATMENT",
            "2013-05-22",
            167
        ],
        [
            73,
            "CDISCPILOT01",
            "QS",
            "CDISC011",
            41,
            "SWLS0103",
            "SWLS01-I Am Satisfied with My Life",
            "SWLS",
            "Neither agree nor disagree",
            "4",
            4,
            "",
            12,
            "WEEK 24",
            "TREATMENT",
            "2013-05-22",
            167
        ],
        [
            74,
            "CDISCPILOT01",
            "QS",
            "CDISC011",
            42,
            "SWLS0104",
            "SWLS01-Have Gotten Important Things",
            "SWLS",
            "Slightly disagree",
            "3",
            3,
            "",
            12,
            "WEEK 24",
            "TREATMENT",
            "2013-05-22",
            167
        ],
        [
            75,
            "CDISCPILOT01",
            "QS",
            "CDISC011",
            43,
            "SWLS0105",
            "SWLS01-Live Life Over Change Nothing",
            "SWLS",
            "Neither agree nor disagree",
            "4",
            4,
            "",
            12,
            "WEEK 24",
            "TREATMENT",
            "2013-05-22",
            167
        ],
        [
            76,
            "CDISCPILOT01",
            "QS",
            "CDISC012",
            12,
            "SWLS0101",
            "SWLS01-My Life is Close to Ideal",
            "SWLS",
            "Agree",
            "6",
            6,
            "Y",
            3,
            "BASELINE",
            "SCREENING",
            "2013-09-03",
            1
        ],
        [
            77,
            "CDISCPILOT01",
            "QS",
            "CDISC012",
            13,
            "SWLS0102",
            "SWLS01-My Life Conditions are Excellent",
            "SWLS",
            "Slightly agree",
            "5",
            5,
            "Y",
            3,
            "BASELINE",
            "SCREENING",
            "2013-09-03",
            1
        ],
        [
            78,
            "CDISCPILOT01",
            "QS",
            "CDISC012",
            14,
            "SWLS0103",
            "SWLS01-I Am Satisfied with My Life",
            "SWLS",
            "Strongly agree",
            "7",
            7,
            "Y",
            3,
            "BASELINE",
            "SCREENING",
            "2013-09-03",
            1
        ],
        [
            79,
            "CDISCPILOT01",
            "QS",
            "CDISC012",
            15,
            "SWLS0104",
            "SWLS01-Have Gotten Important Things",
            "SWLS",
            "Slightly agree",
            "5",
            5,
            "Y",
            3,
            "BASELINE",
            "SCREENING",
            "2013-09-03",
            1
        ],
        [
            80,
            "CDISCPILOT01",
            "QS",
            "CDISC012",
            16,
            "SWLS0105",
            "SWLS01-Live Life Over Change Nothing",
            "SWLS",
            "Agree",
            "6",
            6,
            "Y",
            3,
            "BASELINE",
            "SCREENING",
            "2013-09-03",
            1
        ],
        [
            81,
            "CDISCPILOT01",
            "QS",
            "CDISC014",
            12,
            "SWLS0101",
            "SWLS01-My Life is Close to Ideal",
            "SWLS",
            "Agree",
            "6",
            6,
            "Y",
            3,
            "BASELINE",
            "SCREENING",
            "2013-04-03",
            1
        ],
        [
            82,
            "CDISCPILOT01",
            "QS",
            "CDISC014",
            13,
            "SWLS0102",
            "SWLS01-My Life Conditions are Excellent",
            "SWLS",
            "Strongly agree",
            "7",
            7,
            "Y",
            3,
            "BASELINE",
            "SCREENING",
            "2013-04-03",
            1
        ],
        [
            83,
            "CDISCPILOT01",
            "QS",
            "CDISC014",
            14,
            "SWLS0103",
            "SWLS01-I Am Satisfied with My Life",
            "SWLS",
            "Agree",
            "6",
            6,
            "Y",
            3,
            "BASELINE",
            "SCREENING",
            "2013-04-03",
            1
        ],
        [
            84,
            "CDISCPILOT01",
            "QS",
            "CDISC014",
            15,
            "SWLS0104",
            "SWLS01-Have Gotten Important Things",
            "SWLS",
            "Slightly agree",
            "5",
            5,
            "Y",
            3,
            "BASELINE",
            "SCREENING",
            "2013-04-03",
            1
        ],
        [
            85,
            "CDISCPILOT01",
            "QS",
            "CDISC014",
            16,
            "SWLS0105",
            "SWLS01-Live Life Over Change Nothing",
            "SWLS",
            "Agree",
            "6",
            6,
            "Y",
            3,
            "BASELINE",
            "SCREENING",
            "2013-04-03",
            1
        ],
        [
            86,
            "CDISCPILOT01",
            "QS",
            "CDISC014",
            28,
            "SWLS0101",
            "SWLS01-My Life is Close to Ideal",
            "SWLS",
            "Agree",
            "6",
            6,
            "",
            201,
            "EARLY DISCONTINUATION RETRIEVAL",
            "TREATMENT",
            "2013-09-18",
            169
        ],
        [
            87,
            "CDISCPILOT01",
            "QS",
            "CDISC014",
            29,
            "SWLS0102",
            "SWLS01-My Life Conditions are Excellent",
            "SWLS",
            "Strongly agree",
            "7",
            7,
            "",
            201,
            "EARLY DISCONTINUATION RETRIEVAL",
            "TREATMENT",
            "2013-09-18",
            169
        ],
        [
            88,
            "CDISCPILOT01",
            "QS",
            "CDISC014",
            30,
            "SWLS0103",
            "SWLS01-I Am Satisfied with My Life",
            "SWLS",
            "Agree",
            "6",
            6,
            "",
            201,
            "EARLY DISCONTINUATION RETRIEVAL",
            "TREATMENT",
            "2013-09-18",
            169
        ],
        [
            89,
            "CDISCPILOT01",
            "QS",
            "CDISC014",
            31,
            "SWLS0104",
            "SWLS01-Have Gotten Important Things",
            "SWLS",
            "Slightly agree",
            "5",
            5,
            "",
            201,
            "EARLY DISCONTINUATION RETRIEVAL",
            "TREATMENT",
            "2013-09-18",
            169
        ],
        [
            90,
            "CDISCPILOT01",
            "QS",
            "CDISC014",
            32,
            "SWLS0105",
            "SWLS01-Live Life Over Change Nothing",
            "SWLS",
            "Agree",
            "6",
            6,
            "",
            201,
            "EARLY DISCONTINUATION RETRIEVAL",
            "TREATMENT",
            "2013-09-18",
            169
        ],
        [
            91,
            "CDISCPILOT01",
            "QS",
            "CDISC016",
            12,
            "SWLS0101",
            "SWLS01-My Life is Close to Ideal",
            "SWLS",
            "Agree",
            "6",
            6,
            "Y",
            3,
            "BASELINE",
            "SCREENING",
            "2013-04-03",
            1
        ],
        [
            92,
            "CDISCPILOT01",
            "QS",
            "CDISC016",
            13,
            "SWLS0102",
            "SWLS01-My Life Conditions are Excellent",
            "SWLS",
            "Agree",
            "6",
            6,
            "Y",
            3,
            "BASELINE",
            "SCREENING",
            "2013-04-03",
            1
        ],
        [
            93,
            "CDISCPILOT01",
            "QS",
            "CDISC016",
            14,
            "SWLS0103",
            "SWLS01-I Am Satisfied with My Life",
            "SWLS",
            "Slightly agree",
            "5",
            5,
            "Y",
            3,
            "BASELINE",
            "SCREENING",
            "2013-04-03",
            1
        ],
        [
            94,
            "CDISCPILOT01",
            "QS",
            "CDISC016",
            15,
            "SWLS0104",
            "SWLS01-Have Gotten Important Things",
            "SWLS",
            "Slightly agree",
            "5",
            5,
            "Y",
            3,
            "BASELINE",
            "SCREENING",
            "2013-04-03",
            1
        ],
        [
            95,
            "CDISCPILOT01",
            "QS",
            "CDISC016",
            16,
            "SWLS0105",
            "SWLS01-Live Life Over Change Nothing",
            "SWLS",
            "Agree",
            "6",
            6,
            "Y",
            3,
            "BASELINE",
            "SCREENING",
            "2013-04-03",
            1
        ],
        [
            96,
            "CDISCPILOT01",
            "QS",
            "CDISC016",
            28,
            "SWLS0101",
            "SWLS01-My Life is Close to Ideal",
            "SWLS",
            "Agree",
            "6",
            6,
            "",
            9,
            "WEEK 12",
            "TREATMENT",
            "2013-06-01",
            60
        ],
        [
            97,
            "CDISCPILOT01",
            "QS",
            "CDISC016",
            29,
            "SWLS0102",
            "SWLS01-My Life Conditions are Excellent",
            "SWLS",
            "Agree",
            "6",
            6,
            "",
            9,
            "WEEK 12",
            "TREATMENT",
            "2013-06-01",
            60
        ],
        [
            98,
            "CDISCPILOT01",
            "QS",
            "CDISC016",
            30,
            "SWLS0103",
            "SWLS01-I Am Satisfied with My Life",
            "SWLS",
            "Slightly agree",
            "5",
            5,
            "",
            9,
            "WEEK 12",
            "TREATMENT",
            "2013-06-01",
            60
        ],
        [
            99,
            "CDISCPILOT01",
            "QS",
            "CDISC016",
            31,
            "SWLS0104",
            "SWLS01-Have Gotten Important Things",
            "SWLS",
            "Slightly agree",
            "5",
            5,
            "",
            9,
            "WEEK 12",
            "TREATMENT",
            "2013-06-01",
            60
        ],
        [
            100,
            "CDISCPILOT01",
            "QS",
            "CDISC016",
            32,
            "SWLS0105",
            "SWLS01-Live Life Over Change Nothing",
            "SWLS",
            "Agree",
            "6",
            6,
            "",
            9,
            "WEEK 12",
            "TREATMENT",
            "2013-06-01",
            60
        ],
        [
            101,
            "CDISCPILOT01",
            "QS",
            "CDISC016",
            44,
            "SWLS0101",
            "SWLS01-My Life is Close to Ideal",
            "SWLS",
            "Neither agree nor disagree",
            "4",
            4,
            "",
            201,
            "EARLY DISCONTINUATION RETRIEVAL",
            "TREATMENT",
            "2013-09-22",
            173
        ],
        [
            102,
            "CDISCPILOT01",
            "QS",
            "CDISC016",
            45,
            "SWLS0102",
            "SWLS01-My Life Conditions are Excellent",
            "SWLS",
            "Slightly agree",
            "5",
            5,
            "",
            201,
            "EARLY DISCONTINUATION RETRIEVAL",
            "TREATMENT",
            "2013-09-22",
            173
        ],
        [
            103,
            "CDISCPILOT01",
            "QS",
            "CDISC016",
            46,
            "SWLS0103",
            "SWLS01-I Am Satisfied with My Life",
            "SWLS",
            "Slightly disagree",
            "3",
            3,
            "",
            201,
            "EARLY DISCONTINUATION RETRIEVAL",
            "TREATMENT",
            "2013-09-22",
            173
        ],
        [
            104,
            "CDISCPILOT01",
            "QS",
            "CDISC016",
            47,
            "SWLS0104",
            "SWLS01-Have Gotten Important Things",
            "SWLS",
            "Agree",
            "6",
            6,
            "",
            201,
            "EARLY DISCONTINUATION RETRIEVAL",
            "TREATMENT",
            "2013-09-22",
            173
        ],
        [
            105,
            "CDISCPILOT01",
            "QS",
            "CDISC016",
            48,
            "SWLS0105",
            "SWLS01-Live Life Over Change Nothing",
            "SWLS",
            "Neither agree nor disagree",
            "4",
            4,
            "",
            201,
            "EARLY DISCONTINUATION RETRIEVAL",
            "TREATMENT",
            "2013-09-22",
            173
        ],
        [
            106,
            "CDISCPILOT01",
            "QS",
            "CDISC017",
            12,
            "SWLS0101",
            "SWLS01-My Life is Close to Ideal",
            "SWLS",
            "Slightly disagree",
            "3",
            3,
            "Y",
            3,
            "BASELINE",
            "SCREENING",
            "2013-09-21",
            1
        ],
        [
            107,
            "CDISCPILOT01",
            "QS",
            "CDISC017",
            13,
            "SWLS0102",
            "SWLS01-My Life Conditions are Excellent",
            "SWLS",
            "Neither agree nor disagree",
            "4",
            4,
            "Y",
            3,
            "BASELINE",
            "SCREENING",
            "2013-09-21",
            1
        ],
        [
            108,
            "CDISCPILOT01",
            "QS",
            "CDISC017",
            14,
            "SWLS0103",
            "SWLS01-I Am Satisfied with My Life",
            "SWLS",
            "Slightly disagree",
            "3",
            3,
            "Y",
            3,
            "BASELINE",
            "SCREENING",
            "2013-09-21",
            1
        ],
        [
            109,
            "CDISCPILOT01",
            "QS",
            "CDISC017",
            15,
            "SWLS0104",
            "SWLS01-Have Gotten Important Things",
            "SWLS",
            "Slightly disagree",
            "3",
            3,
            "Y",
            3,
            "BASELINE",
            "SCREENING",
            "2013-09-21",
            1
        ],
        [
            110,
            "CDISCPILOT01",
            "QS",
            "CDISC017",
            16,
            "SWLS0105",
            "SWLS01-Live Life Over Change Nothing",
            "SWLS",
            "Slightly disagree",
            "3",
            3,
            "Y",
            3,
            "BASELINE",
            "SCREENING",
            "2013-09-21",
            1
        ],
        [
            111,
            "CDISCPILOT01",
            "QS",
            "CDISC017",
            28,
            "SWLS0101",
            "SWLS01-My Life is Close to Ideal",
            "SWLS",
            "Slightly disagree",
            "3",
            3,
            "",
            10,
            "WEEK 16",
            "TREATMENT",
            "2014-01-11",
            113
        ],
        [
            112,
            "CDISCPILOT01",
            "QS",
            "CDISC017",
            29,
            "SWLS0102",
            "SWLS01-My Life Conditions are Excellent",
            "SWLS",
            "Neither agree nor disagree",
            "4",
            4,
            "",
            10,
            "WEEK 16",
            "TREATMENT",
            "2014-01-11",
            113
        ],
        [
            113,
            "CDISCPILOT01",
            "QS",
            "CDISC017",
            30,
            "SWLS0103",
            "SWLS01-I Am Satisfied with My Life",
            "SWLS",
            "Slightly disagree",
            "3",
            3,
            "",
            10,
            "WEEK 16",
            "TREATMENT",
            "2014-01-11",
            113
        ],
        [
            114,
            "CDISCPILOT01",
            "QS",
            "CDISC017",
            31,
            "SWLS0104",
            "SWLS01-Have Gotten Important Things",
            "SWLS",
            "Slightly disagree",
            "3",
            3,
            "",
            10,
            "WEEK 16",
            "TREATMENT",
            "2014-01-11",
            113
        ],
        [
            115,
            "CDISCPILOT01",
            "QS",
            "CDISC017",
            32,
            "SWLS0105",
            "SWLS01-Live Life Over Change Nothing",
            "SWLS",
            "Slightly disagree",
            "3",
            3,
            "",
            10,
            "WEEK 16",
            "TREATMENT",
            "2014-01-11",
            113
        ],
        [
            116,
            "CDISCPILOT01",
            "QS",
            "CDISC017",
            44,
            "SWLS0101",
            "SWLS01-My Life is Close to Ideal",
            "SWLS",
            "Slightly disagree",
            "3",
            3,
            "",
            11,
            "WEEK 20",
            "TREATMENT",
            "2014-02-08",
            141
        ],
        [
            117,
            "CDISCPILOT01",
            "QS",
            "CDISC017",
            45,
            "SWLS0102",
            "SWLS01-My Life Conditions are Excellent",
            "SWLS",
            "Neither agree nor disagree",
            "4",
            4,
            "",
            11,
            "WEEK 20",
            "TREATMENT",
            "2014-02-08",
            141
        ],
        [
            118,
            "CDISCPILOT01",
            "QS",
            "CDISC017",
            46,
            "SWLS0103",
            "SWLS01-I Am Satisfied with My Life",
            "SWLS",
            "Neither agree nor disagree",
            "4",
            4,
            "",
            11,
            "WEEK 20",
            "TREATMENT",
            "2014-02-08",
            141
        ],
        [
            119,
            "CDISCPILOT01",
            "QS",
            "CDISC017",
            47,
            "SWLS0104",
            "SWLS01-Have Gotten Important Things",
            "SWLS",
            "Slightly disagree",
            "3",
            3,
            "",
            11,
            "WEEK 20",
            "TREATMENT",
            "2014-02-08",
            141
        ],
        [
            120,
            "CDISCPILOT01",
            "QS",
            "CDISC017",
            48,
            "SWLS0105",
            "SWLS01-Live Life Over Change Nothing",
            "SWLS",
            "Slightly disagree",
            "3",
            3,
            "",
            11,
            "WEEK 20",
            "TREATMENT",
            "2014-02-08",
            141
        ],
        [
            121,
            "CDISCPILOT01",
            "QS",
            "CDISC017",
            60,
            "SWLS0101",
            "SWLS01-My Life is Close to Ideal",
            "SWLS",
            "Slightly disagree",
            "3",
            3,
            "",
            201,
            "EARLY DISCONTINUATION RETRIEVAL",
            "TREATMENT",
            "2014-03-08",
            169
        ],
        [
            122,
            "CDISCPILOT01",
            "QS",
            "CDISC017",
            61,
            "SWLS0102",
            "SWLS01-My Life Conditions are Excellent",
            "SWLS",
            "Neither agree nor disagree",
            "4",
            4,
            "",
            201,
            "EARLY DISCONTINUATION RETRIEVAL",
            "TREATMENT",
            "2014-03-08",
            169
        ],
        [
            123,
            "CDISCPILOT01",
            "QS",
            "CDISC017",
            62,
            "SWLS0103",
            "SWLS01-I Am Satisfied with My Life",
            "SWLS",
            "Neither agree nor disagree",
            "4",
            4,
            "",
            201,
            "EARLY DISCONTINUATION RETRIEVAL",
            "TREATMENT",
            "2014-03-08",
            169
        ],
        [
            124,
            "CDISCPILOT01",
            "QS",
            "CDISC017",
            63,
            "SWLS0104",
            "SWLS01-Have Gotten Important Things",
            "SWLS",
            "Slightly disagree",
            "3",
            3,
            "",
            201,
            "EARLY DISCONTINUATION RETRIEVAL",
            "TREATMENT",
            "2014-03-08",
            169
        ],
        [
            125,
            "CDISCPILOT01",
            "QS",
            "CDISC017",
            64,
            "SWLS0105",
            "SWLS01-Live Life Over Change Nothing",
            "SWLS",
            "Slightly disagree",
            "3",
            3,
            "",
            201,
            "EARLY DISCONTINUATION RETRIEVAL",
            "TREATMENT",
            "2014-03-08",
            169
        ],
        [
            126,
            "CDISCPILOT01",
            "QS",
            "CDISC018",
            12,
            "SWLS0101",
            "SWLS01-My Life is Close to Ideal",
            "SWLS",
            "Neither agree nor disagree",
            "4",
            4,
            "Y",
            3,
            "BASELINE",
            "SCREENING",
            "2012-12-17",
            1
        ],
        [
            127,
            "CDISCPILOT01",
            "QS",
            "CDISC018",
            13,
            "SWLS0102",
            "SWLS01-My Life Conditions are Excellent",
            "SWLS",
            "Slightly agree",
            "5",
            5,
            "Y",
            3,
            "BASELINE",
            "SCREENING",
            "2012-12-17",
            1
        ],
        [
            128,
            "CDISCPILOT01",
            "QS",
            "CDISC018",
            14,
            "SWLS0103",
            "SWLS01-I Am Satisfied with My Life",
            "SWLS",
            "Neither agree nor disagree",
            "4",
            4,
            "Y",
            3,
            "BASELINE",
            "SCREENING",
            "2012-12-17",
            1
        ],
        [
            129,
            "CDISCPILOT01",
            "QS",
            "CDISC018",
            15,
            "SWLS0104",
            "SWLS01-Have Gotten Important Things",
            "SWLS",
            "Agree",
            "6",
            6,
            "Y",
            3,
            "BASELINE",
            "SCREENING",
            "2012-12-17",
            1
        ],
        [
            130,
            "CDISCPILOT01",
            "QS",
            "CDISC018",
            16,
            "SWLS0105",
            "SWLS01-Live Life Over Change Nothing",
            "SWLS",
            "Slightly agree",
            "5",
            5,
            "Y",
            3,
            "BASELINE",
            "SCREENING",
            "2012-12-17",
            1
        ],
        [
            131,
            "CDISCPILOT01",
            "QS",
            "CDISC018",
            28,
            "SWLS0101",
            "SWLS01-My Life is Close to Ideal",
            "SWLS",
            "Neither agree nor disagree",
            "4",
            4,
            "",
            201,
            "EARLY DISCONTINUATION RETRIEVAL",
            "TREATMENT",
            "2013-06-03",
            169
        ],
        [
            132,
            "CDISCPILOT01",
            "QS",
            "CDISC018",
            29,
            "SWLS0102",
            "SWLS01-My Life Conditions are Excellent",
            "SWLS",
            "Slightly agree",
            "5",
            5,
            "",
            201,
            "EARLY DISCONTINUATION RETRIEVAL",
            "TREATMENT",
            "2013-06-03",
            169
        ],
        [
            133,
            "CDISCPILOT01",
            "QS",
            "CDISC018",
            30,
            "SWLS0103",
            "SWLS01-I Am Satisfied with My Life",
            "SWLS",
            "Neither agree nor disagree",
            "4",
            4,
            "",
            201,
            "EARLY DISCONTINUATION RETRIEVAL",
            "TREATMENT",
            "2013-06-03",
            169
        ],
        [
            134,
            "CDISCPILOT01",
            "QS",
            "CDISC018",
            31,
            "SWLS0104",
            "SWLS01-Have Gotten Important Things",
            "SWLS",
            "Agree",
            "6",
            6,
            "",
            201,
            "EARLY DISCONTINUATION RETRIEVAL",
            "TREATMENT",
            "2013-06-03",
            169
        ],
        [
            135,
            "CDISCPILOT01",
            "QS",
            "CDISC018",
            32,
            "SWLS0105",
            "SWLS01-Live Life Over Change Nothing",
            "SWLS",
            "Slightly agree",
            "5",
            5,
            "",
            201,
            "EARLY DISCONTINUATION RETRIEVAL",
            "TREATMENT",
            "2013-06-03",
            169
        ]
    ]
}