{
  "clinicalData": {
    "studyOID": "CDISCPILOT01",
    "metaDataVersionOID": "CDISC.ADaM.2.1",
    "itemGroupData": {
      "ADQSCIBC": {
        "records": 730,
        "name": "ADQSCIBC",
        "label": "CIBIC+ Analysis",
        "items": [
          {
            "OID": "ITEMGROUPDATASEQ",
            "name": "ITEMGROUPDATASEQ",
            "label": "Record Identifier",
            "type": "integer"
          },
          {
            "OID": "ADQSCIBC.STUDYID",
            "name": "STUDYID",
            "label": "Study Identifier",
            "type": "string",
            "length": 12
          },
          {
            "OID": "ADQSCIBC.SITEID",
            "name": "SITEID",
            "label": "Study Site Identifier",
            "type": "string",
            "length": 3
          },
          {
            "OID": "ADQSCIBC.SITEGR1",
            "name": "SITEGR1",
            "label": "Pooled Site Group 1",
            "type": "string",
            "length": 3
          },
          {
            "OID": "ADQSCIBC.USUBJID",
            "name": "USUBJID",
            "label": "Unique Subject Identifier",
            "type": "string",
            "length": 11
          },
          {
            "OID": "ADQSCIBC.TRTSDT",
            "name": "TRTSDT",
            "label": "Date of First Exposure to Treatment",
            "type": "integer",
            "length": 8
          },
          {
            "OID": "ADQSCIBC.TRTEDT",
            "name": "TRTEDT",
            "label": "Date of Last Exposure to Treatment",
            "type": "integer",
            "length": 8
          },
          {
            "OID": "ADQSCIBC.TRTP",
            "name": "TRTP",
            "label": "Planned Treatment",
            "type": "string",
            "length": 20
          },
          {
            "OID": "ADQSCIBC.TRTPN",
            "name": "TRTPN",
            "label": "Planned Treatment (N)",
            "type": "integer",
            "length": 8
          },
          {
            "OID": "ADQSCIBC.AGE",
            "name": "AGE",
            "label": "Age",
            "type": "integer",
            "length": 8
          },
          {
            "OID": "ADQSCIBC.AGEGR1",
            "name": "AGEGR1",
            "label": "Pooled Age Group 1",
            "type": "string",
            "length": 5
          },
          {
            "OID": "ADQSCIBC.AGEGR1N",
            "name": "AGEGR1N",
            "label": "Pooled Age Group 1 (N)",
            "type": "integer",
            "length": 8
          },
          {
            "OID": "ADQSCIBC.RACE",
            "name": "RACE",
            "label": "Race",
            "type": "string",
            "length": 32
          },
          {
            "OID": "ADQSCIBC.RACEN",
            "name": "RACEN",
            "label": "Race (N)",
            "type": "integer",
            "length": 8
          },
          {
            "OID": "ADQSCIBC.SEX",
            "name": "SEX",
            "label": "Sex",
            "type": "string",
            "length": 1
          },
          {
            "OID": "ADQSCIBC.ITTFL",
            "name": "ITTFL",
            "label": "Intent-to-Treat Population Flag",
            "type": "string",
            "length": 1
          },
          {
            "OID": "ADQSCIBC.EFFFL",
            "name": "EFFFL",
            "label": "Efficacy Population Flag",
            "type": "string",
            "length": 1
          },
          {
            "OID": "ADQSCIBC.COMP24FL",
            "name": "COMP24FL",
            "label": "Completers of Week 24 Population Flag",
            "type": "string",
            "length": 1
          },
          {
            "OID": "ADQSCIBC.AVISIT",
            "name": "AVISIT",
            "label": "Analysis Visit",
            "type": "string",
            "length": 16
          },
          {
            "OID": "ADQSCIBC.AVISITN",
            "name": "AVISITN",
            "label": "Analysis Visit (N)",
            "type": "integer",
            "length": 8,
            "fractionDigits": 1
          },
          {
            "OID": "ADQSCIBC.VISIT",
            "name": "VISIT",
            "label": "Visit Name",
            "type": "string",
            "length": 19
          },
          {
            "OID": "ADQSCIBC.VISITNUM",
            "name": "VISITNUM",
            "label": "Visit Number",
            "type": "float",
            "length": 8,
            "fractionDigits": 1
          },
          {
            "OID": "ADQSCIBC.ADY",
            "name": "ADY",
            "label": "Analysis Relative Day",
            "type": "integer",
            "length": 8
          },
          {
            "OID": "ADQSCIBC.ADT",
            "name": "ADT",
            "label": "Analysis Date",
            "type": "integer",
            "length": 8
          },
          {
            "OID": "ADQSCIBC.PARAMCD",
            "name": "PARAMCD",
            "label": "Parameter Code",
            "type": "string",
            "length": 8
          },
          {
            "OID": "ADQSCIBC.PARAM",
            "name": "PARAM",
            "label": "Parameter",
            "type": "string",
            "length": 100
          },
          {
            "OID": "ADQSCIBC.PARAMN",
            "name": "PARAMN",
            "label": "Parameter (N)",
            "type": "integer",
            "length": 8
          },
          {
            "OID": "ADQSCIBC.AVAL",
            "name": "AVAL",
            "label": "Analysis Value",
            "type": "integer",
            "length": 8
          },
          {
            "OID": "ADQSCIBC.ANL01FL",
            "name": "ANL01FL",
            "label": "Analysis Record Flag 01",
            "type": "string",
            "length": 1
          },
          {
            "OID": "ADQSCIBC.DTYPE",
            "name": "DTYPE",
            "label": "Derivation Type",
            "type": "string",
            "length": 7
          },
          {
            "OID": "ADQSCIBC.AWRANGE",
            "name": "AWRANGE",
            "label": "Analysis Window Valid Relative Range",
            "type": "string",
            "length": 9
          },
          {
            "OID": "ADQSCIBC.AWTARGET",
            "name": "AWTARGET",
            "label": "Analysis Window Target",
            "type": "integer",
            "length": 8
          },
          {
            "OID": "ADQSCIBC.AWTDIFF",
            "name": "AWTDIFF",
            "label": "Analysis Window Diff from Target",
            "type": "integer",
            "length": 8
          },
          {
            "OID": "ADQSCIBC.AWLO",
            "name": "AWLO",
            "label": "Analysis Window Beginning Timepoint",
            "type": "integer",
            "length": 8
          },
          {
            "OID": "ADQSCIBC.AWHI",
            "name": "AWHI",
            "label": "Analysis Window Ending Timepoint",
            "type": "integer",
            "length": 8
          },
          {
            "OID": "ADQSCIBC.AWU",
            "name": "AWU",
            "label": "Analysis Window Unit",
            "type": "string",
            "length": 4
          },
          {
            "OID": "ADQSCIBC.QSSEQ",
            "name": "QSSEQ",
            "label": "Sequence Number",
            "type": "integer",
            "length": 8
          }
        ],
        "itemData": [
          [
            1,
            "CDISCPILOT01",
            "701",
            "701",
            "01-701-1015",
            19725,
            19906,
            "Placebo",
            0,
            63,
            "<65",
            1,
            "WHITE",
            1,
            "F",
            "Y",
            "Y",
            "Y",
            "Week 8",
            8,
            "WEEK 8",
            8,
            63,
            19787,
            "CIBICVAL",
            "CIBIC Score",
            1,
            4,
            "Y",
            "",
            "2-84",
            56,
            7,
            2,
            84,
            "DAYS",
            6001
          ],
          [
            2,
            "CDISCPILOT01",
            "701",
            "701",
            "01-701-1015",
            19725,
            19906,
            "Placebo",
            0,
            63,
            "<65",
            1,
            "WHITE",
            1,
            "F",
            "Y",
            "Y",
            "Y",
            "Week 16",
            16,
            "WEEK 16",
            10,
            126,
            19850,
            "CIBICVAL",
            "CIBIC Score",
            1,
            4,
            "Y",
            "",
            "85-140",
            112,
            14,
            85,
            140,
            "DAYS",
            6002
          ],
          [
            3,
            "CDISCPILOT01",
            "701",
            "701",
            "01-701-1015",
            19725,
            19906,
            "Placebo",
            0,
            63,
            "<65",
            1,
            "WHITE",
            1,
            "F",
            "Y",
            "Y",
            "Y",
            "Week 24",
            24,
            "WEEK 24",
            12,
            168,
            19892,
            "CIBICVAL",
            "CIBIC Score",
            1,
            4,
            "Y",
            "",
            ">140",
            168,
            0,
            141,
            null,
            "DAYS",
            6003
          ],
          [
            4,
            "CDISCPILOT01",
            "701",
            "701",
            "01-701-1023",
            19210,
            19237,
            "Placebo",
            0,
            64,
            "<65",
            1,
            "WHITE",
            1,
            "M",
            "Y",
            "Y",
            "N",
            "Week 8",
            8,
            "WEEK 4",
            5,
            29,
            19238,
            "CIBICVAL",
            "CIBIC Score",
            1,
            3,
            "Y",
            "",
            "2-84",
            56,
            27,
            2,
            84,
            "DAYS",
            6001
          ],
          [
            5,
            "CDISCPILOT01",
            "701",
            "701",
            "01-701-1023",
            19210,
            19237,
            "Placebo",
            0,
            64,
            "<65",
            1,
            "WHITE",
            1,
            "M",
            "Y",
            "Y",
            "N",
            "Week 16",
            16,
            "WEEK 4",
            5,
            29,
            19238,
            "CIBICVAL",
            "CIBIC Score",
            1,
            3,
            "Y",
            "LOCF",
            "85-140",
            112,
            83,
            85,
            140,
            "DAYS",
            6001
          ],
          [
            6,
            "CDISCPILOT01",
            "701",
            "701",
            "01-701-1023",
            19210,
            19237,
            "Placebo",
            0,
            64,
            "<65",
            1,
            "WHITE",
            1,
            "M",
            "Y",
            "Y",
            "N",
            "Week 24",
            24,
            "RETRIEVAL",
            201,
            198,
            19407,
            "CIBICVAL",
            "CIBIC Score",
            1,
            5,
            "Y",
            "",
            ">140",
            168,
            30,
            141,
            null,
            "DAYS",
            6002
          ],
          [
            7,
            "CDISCPILOT01",
            "701",
            "701",
            "01-701-1028",
            19558,
            19737,
            "Xanomeline High Dose",
            81,
            71,
            "65-80",
            2,
            "WHITE",
            1,
            "M",
            "Y",
            "Y",
            "Y",
            "Week 8",
            8,
            "WEEK 8",
            8,
            54,
            19611,
            "CIBICVAL",
            "CIBIC Score",
            1,
            4,
            "Y",
            "",
            "2-84",
            56,
            2,
            2,
            84,
            "DAYS",
            6001
          ],
          [
            8,
            "CDISCPILOT01",
            "701",
            "701",
            "01-701-1028",
            19558,
            19737,
            "Xanomeline High Dose",
            81,
            71,
            "65-80",
            2,
            "WHITE",
            1,
            "M",
            "Y",
            "Y",
            "Y",
            "Week 16",
            16,
            "WEEK 16",
            10,
            111,
            19668,
            "CIBICVAL",
            "CIBIC Score",
            1,
            4,
            "Y",
            "",
            "85-140",
            112,
            1,
            85,
            140,
            "DAYS",
            6002
          ],
          [
            9,
            "CDISCPILOT01",
            "701",
            "701",
            "01-701-1028",
            19558,
            19737,
            "Xanomeline High Dose",
            81,
            71,
            "65-80",
            2,
            "WHITE",
            1,
            "M",
            "Y",
            "Y",
            "Y",
            "Week 24",
            24,
            "WEEK 24",
            12,
            172,
            19729,
            "CIBICVAL",
            "CIBIC Score",
            1,
            4,
            "Y",
            "",
            ">140",
            168,
            4,
            141,
            null,
            "DAYS",
            6003
          ],
          [
            10,
            "CDISCPILOT01",
            "701",
            "701",
            "01-701-1033",
            19800,
            19813,
            "Xanomeline Low Dose",
            54,
            74,
            "65-80",
            2,
            "WHITE",
            1,
            "M",
            "Y",
            "Y",
            "N",
            "Week 8",
            8,
            "WEEK 4",
            5,
            28,
            19827,
            "CIBICVAL",
            "CIBIC Score",
            1,
            4,
            "Y",
            "",
            "2-84",
            56,
            28,
            2,
            84,
            "DAYS",
            6001
          ],
          [
            11,
            "CDISCPILOT01",
            "701",
            "701",
            "01-701-1033",
            19800,
            19813,
            "Xanomeline Low Dose",
            54,
            74,
            "65-80",
            2,
            "WHITE",
            1,
            "M",
            "Y",
            "Y",
            "N",
            "Week 16",
            16,
            "WEEK 4",
            5,
            28,
            19827,
            "CIBICVAL",
            "CIBIC Score",
            1,
            4,
            "Y",
            "LOCF",
            "85-140",
            112,
            84,
            85,
            140,
            "DAYS",
            6001
          ],
          [
            12,
            "CDISCPILOT01",
            "701",
            "701",
            "01-701-1033",
            19800,
            19813,
            "Xanomeline Low Dose",
            54,
            74,
            "65-80",
            2,
            "WHITE",
            1,
            "M",
            "Y",
            "Y",
            "N",
            "Week 24",
            24,
            "RETRIEVAL",
            201,
            182,
            19981,
            "CIBICVAL",
            "CIBIC Score",
            1,
            4,
            "Y",
            "",
            ">140",
            168,
            14,
            141,
            null,
            "DAYS",
            6002
          ],
          [
            13,
            "CDISCPILOT01",
            "701",
            "701",
            "01-701-1034",
            19905,
            20087,
            "Xanomeline High Dose",
            81,
            77,
            "65-80",
            2,
            "WHITE",
            1,
            "F",
            "Y",
            "Y",
            "Y",
            "Week 8",
            8,
            "WEEK 8",
            8,
            57,
            19961,
            "CIBICVAL",
            "CIBIC Score",
            1,
            4,
            "Y",
            "",
            "2-84",
            56,
            1,
            2,
            84,
            "DAYS",
            6001
          ],
          [
            14,
            "CDISCPILOT01",
            "701",
            "701",
            "01-701-1034",
            19905,
            20087,
            "Xanomeline High Dose",
            81,
            77,
            "65-80",
            2,
            "WHITE",
            1,
            "F",
            "Y",
            "Y",
            "Y",
            "Week 16",
            16,
            "WEEK 16",
            10,
            113,
            20017,
            "CIBICVAL",
            "CIBIC Score",
            1,
            3,
            "Y",
            "",
            "85-140",
            112,
            1,
            85,
            140,
            "DAYS",
            6002
          ],
          [
            15,
            "CDISCPILOT01",
            "701",
            "701",
            "01-701-1034",
            19905,
            20087,
            "Xanomeline High Dose",
            81,
            77,
            "65-80",
            2,
            "WHITE",
            1,
            "F",
            "Y",
            "Y",
            "Y",
            "Week 24",
            24,
            "WEEK 24",
            12,
            170,
            20074,
            "CIBICVAL",
            "CIBIC Score",
            1,
            4,
            "Y",
            "",
            ">140",
            168,
            2,
            141,
            null,
            "DAYS",
            6003
          ],
          [
            16,
            "CDISCPILOT01",
            "701",
            "701",
            "01-701-1047",
            19401,
            19426,
            "Placebo",
            0,
            85,
            ">80",
            3,
            "WHITE",
            1,
            "F",
            "Y",
            "Y",
            "N",
            "Week 8",
            8,
            "AMBUL ECG REMOVAL",
            6,
            46,
            19446,
            "CIBICVAL",
            "CIBIC Score",
            1,
            4,
            "Y",
            "",
            "2-84",
            56,
            10,
            2,
            84,
            "DAYS",
            6001
          ],
          [
            17,
            "CDISCPILOT01",
            "701",
            "701",
            "01-701-1047",
            19401,
            19426,
            "Placebo",
            0,
            85,
            ">80",
            3,
            "WHITE",
            1,
            "F",
            "Y",
            "Y",
            "N",
            "Week 16",
            16,
            "AMBUL ECG REMOVAL",
            6,
            46,
            19446,
            "CIBICVAL",
            "CIBIC Score",
            1,
            4,
            "Y",
            "LOCF",
            "85-140",
            112,
            66,
            85,
            140,
            "DAYS",
            6001
          ],
          [
            18,
            "CDISCPILOT01",
            "701",
            "701",
            "01-701-1047",
            19401,
            19426,
            "Placebo",
            0,
            85,
            ">80",
            3,
            "WHITE",
            1,
            "F",
            "Y",
            "Y",
            "N",
            "Week 24",
            24,
            "RETRIEVAL",
            201,
            167,
            19567,
            "CIBICVAL",
            "CIBIC Score",
            1,
            5,
            "Y",
            "",
            ">140",
            168,
            1,
            141,
            null,
            "DAYS",
            6002
          ],
          [
            19,
            "CDISCPILOT01",
            "701",
            "701",
            "01-701-1097",
            19724,
            19913,
            "Xanomeline Low Dose",
            54,
            68,
            "65-80",
            2,
            "WHITE",
            1,
            "M",
            "Y",
            "Y",
            "Y",
            "Week 8",
            8,
            "WEEK 8",
            8,
            57,
            19780,
            "CIBICVAL",
            "CIBIC Score",
            1,
            3,
            "Y",
            "",
            "2-84",
            56,
            1,
            2,
            84,
            "DAYS",
            6001
          ],
          [
            20,
            "CDISCPILOT01",
            "701",
            "701",
            "01-701-1097",
            19724,
            19913,
            "Xanomeline Low Dose",
            54,
            68,
            "65-80",
            2,
            "WHITE",
            1,
            "M",
            "Y",
            "Y",
            "Y",
            "Week 16",
            16,
            "WEEK 16",
            10,
            113,
            19836,
            "CIBICVAL",
            "CIBIC Score",
            1,
            4,
            "Y",
            "",
            "85-140",
            112,
            1,
            85,
            140,
            "DAYS",
            6002
          ],
          [
            21,
            "CDISCPILOT01",
            "701",
            "701",
            "01-701-1097",
            19724,
            19913,
            "Xanomeline Low Dose",
            54,
            68,
            "65-80",
            2,
            "WHITE",
            1,
            "M",
            "Y",
            "Y",
            "Y",
            "Week 24",
            24,
            "WEEK 24",
            12,
            169,
            19892,
            "CIBICVAL",
            "CIBIC Score",
            1,
            3,
            "Y",
            "",
            ">140",
            168,
            1,
            141,
            null,
            "DAYS",
            6003
          ],
          [
            22,
            "CDISCPILOT01",
            "701",
            "701",
            "01-701-1111",
            19243,
            19252,
            "Xanomeline Low Dose",
            54,
            81,
            ">80",
            3,
            "WHITE",
            1,
            "F",
            "Y",
            "Y",
            "N",
            "Week 8",
            8,
            "WEEK 2",
            4,
            11,
            19253,
            "CIBICVAL",
            "CIBIC Score",
            1,
            4,
            "Y",
            "",
            "2-84",
            56,
            45,
            2,
            84,
            "DAYS",
            6001
          ],
          [
            23,
            "CDISCPILOT01",
            "701",
            "701",
            "01-701-1111",
            19243,
            19252,
            "Xanomeline Low Dose",
            54,
            81,
            ">80",
            3,
            "WHITE",
            1,
            "F",
            "Y",
            "Y",
            "N",
            "Week 16",
            16,
            "WEEK 2",
            4,
            11,
            19253,
            "CIBICVAL",
            "CIBIC Score",
            1,
            4,
            "Y",
            "LOCF",
            "85-140",
            112,
            101,
            85,
            140,
            "DAYS",
            6001
          ],
          [
            24,
            "CDISCPILOT01",
            "701",
            "701",
            "01-701-1111",
            19243,
            19252,
            "Xanomeline Low Dose",
            54,
            81,
            ">80",
            3,
            "WHITE",
            1,
            "F",
            "Y",
            "Y",
            "N",
            "Week 24",
            24,
            "RETRIEVAL",
            201,
            169,
            19411,
            "CIBICVAL",
            "CIBIC Score",
            1,
            5,
            "Y",
            "",
            ">140",
            168,
            1,
            141,
            null,
            "DAYS",
            6002
          ],
          [
            25,
            "CDISCPILOT01",
            "701",
            "701",
            "01-701-1115",
            19327,
            19381,
            "Xanomeline Low Dose",
            54,
            84,
            ">80",
            3,
            "WHITE",
            1,
            "M",
            "Y",
            "Y",
            "N",
            "Week 8",
            8,
            "WEEK 8",
            8,
            55,
            19381,
            "CIBICVAL",
            "CIBIC Score",
            1,
            4,
            "Y",
            "",
            "2-84",
            56,
            1,
            2,
            84,
            "DAYS",
            6001
          ],
          [
            26,
            "CDISCPILOT01",
            "701",
            "701",
            "01-701-1115",
            19327,
            19381,
            "Xanomeline Low Dose",
            54,
            84,
            ">80",
            3,
            "WHITE",
            1,
            "M",
            "Y",
            "Y",
            "N",
            "Week 16",
            16,
            "WEEK 8",
            8,
            55,
            19381,
            "CIBICVAL",
            "CIBIC Score",
            1,
            4,
            "Y",
            "LOCF",
            "85-140",
            112,
            57,
            85,
            140,
            "DAYS",
            6001
          ],
          [
            27,
            "CDISCPILOT01",
            "701",
            "701",
            "01-701-1115",
            19327,
            19381,
            "Xanomeline Low Dose",
            54,
            84,
            ">80",
            3,
            "WHITE",
            1,
            "M",
            "Y",
            "Y",
            "N",
            "Week 24",
            24,
            "RETRIEVAL",
            201,
            172,
            19498,
            "CIBICVAL",
            "CIBIC Score",
            1,
            5,
            "Y",
            "",
            ">140",
            168,
            4,
            141,
            null,
            "DAYS",
            6002
          ],
          [
            28,
            "CDISCPILOT01",
            "701",
            "701",
            "01-701-1118",
            19794,
            19975,
            "Placebo",
            0,
            52,
            "<65",
            1,
            "WHITE",
            1,
            "M",
            "Y",
            "Y",
            "Y",
            "Week 8",
            8,
            "WEEK 8",
            8,
            58,
            19851,
            "CIBICVAL",
            "CIBIC Score",
            1,
            4,
            "Y",
            "",
            "2-84",
            56,
            2,
            2,
            84,
            "DAYS",
            6001
          ],
          [
            29,
            "CDISCPILOT01",
            "701",
            "701",
            "01-701-1118",
            19794,
            19975,
            "Placebo",
            0,
            52,
            "<65",
            1,
            "WHITE",
            1,
            "M",
            "Y",
            "Y",
            "Y",
            "Week 16",
            16,
            "WEEK 16",
            10,
            113,
            19906,
            "CIBICVAL",
            "CIBIC Score",
            1,
            4,
            "Y",
            "",
            "85-140",
            112,
            1,
            85,
            140,
            "DAYS",
            6002
          ],
          [
            30,
            "CDISCPILOT01",
            "701",
            "701",
            "01-701-1118",
            19794,
            19975,
            "Placebo",
            0,
            52,
            "<65",
            1,
            "WHITE",
            1,
            "M",
            "Y",
            "Y",
            "Y",
            "Week 24",
            24,
            "WEEK 24",
            12,
            169,
            19962,
            "CIBICVAL",
            "CIBIC Score",
            1,
            4,
            "Y",
            "",
            ">140",
            168,
            1,
            141,
            null,
            "DAYS",
            6003
          ],
          [
            31,
            "CDISCPILOT01",
            "701",
            "701",
            "01-701-1130",
            19769,
            19951,
            "Placebo",
            0,
            84,
            ">80",
            3,
            "WHITE",
            1,
            "M",
            "Y",
            "Y",
            "Y",
            "Week 8",
            8,
            "WEEK 8",
            8,
            57,
            19825,
            "CIBICVAL",
            "CIBIC Score",
            1,
            3,
            "Y",
            "",
            "2-84",
            56,
            1,
            2,
            84,
            "DAYS",
            6001
          ],
          [
            32,
            "CDISCPILOT01",
            "701",
            "701",
            "01-701-1130",
            19769,
            19951,
            "Placebo",
            0,
            84,
            ">80",
            3,
            "WHITE",
            1,
            "M",
            "Y",
            "Y",
            "Y",
            "Week 16",
            16,
            "WEEK 16",
            10,
            113,
            19881,
            "CIBICVAL",
            "CIBIC Score",
            1,
            3,
            "Y",
            "",
            "85-140",
            112,
            1,
            85,
            140,
            "DAYS",
            6002
          ],
          [
            33,
            "CDISCPILOT01",
            "701",
            "701",
            "01-701-1130",
            19769,
            19951,
            "Placebo",
            0,
            84,
            ">80",
            3,
            "WHITE",
            1,
            "M",
            "Y",
            "Y",
            "Y",
            "Week 24",
            24,
            "WEEK 24",
            12,
            169,
            19937,
            "CIBICVAL",
            "CIBIC Score",
            1,
            3,
            "Y",
            "",
            ">140",
            168,
            1,
            141,
            null,
            "DAYS",
            6003
          ],
          [
            34,
            "CDISCPILOT01",
            "701",
            "701",
            "01-701-1133",
            19294,
            19476,
            "Xanomeline High Dose",
            81,
            81,
            ">80",
            3,
            "WHITE",
            1,
            "F",
            "Y",
            "Y",
            "Y",
            "Week 8",
            8,
            "WEEK 8",
            8,
            58,
            19351,
            "CIBICVAL",
            "CIBIC Score",
            1,
            4,
            "Y",
            "",
            "2-84",
            56,
            2,
            2,
            84,
            "DAYS",
            6001
          ],
          [
            35,
            "CDISCPILOT01",
            "701",
            "701",
            "01-701-1133",
            19294,
            19476,
            "Xanomeline High Dose",
            81,
            81,
            ">80",
            3,
            "WHITE",
            1,
            "F",
            "Y",
            "Y",
            "Y",
            "Week 16",
            16,
            "WEEK 16",
            10,
            114,
            19407,
            "CIBICVAL",
            "CIBIC Score",
            1,
            5,
            "Y",
            "",
            "85-140",
            112,
            2,
            85,
            140,
            "DAYS",
            6002
          ],
          [
            36,
            "CDISCPILOT01",
            "701",
            "701",
            "01-701-1133",
            19294,
            19476,
            "Xanomeline High Dose",
            81,
            81,
            ">80",
            3,
            "WHITE",
            1,
            "F",
            "Y",
            "Y",
            "Y",
            "Week 24",
            24,
            "WEEK 24",
            12,
            173,
            19466,
            "CIBICVAL",
            "CIBIC Score",
            1,
            5,
            "Y",
            "",
            ">140",
            168,
            5,
            141,
            null,
            "DAYS",
            6003
          ],
          [
            37,
            "CDISCPILOT01",
            "701",
            "701",
            "01-701-1146",
            19498,
            19535,
            "Xanomeline High Dose",
            81,
            75,
            "65-80",
            2,
            "WHITE",
            1,
            "F",
            "Y",
            "Y",
            "N",
            "Week 8",
            8,
            "WEEK 6",
            7,
            42,
            19539,
            "CIBICVAL",
            "CIBIC Score",
            1,
            4,
            "Y",
            "",
            "2-84",
            56,
            14,
            2,
            84,
            "DAYS",
            6001
          ],
          [
            38,
            "CDISCPILOT01",
            "701",
            "701",
            "01-701-1146",
            19498,
            19535,
            "Xanomeline High Dose",
            81,
            75,
            "65-80",
            2,
            "WHITE",
            1,
            "F",
            "Y",
            "Y",
            "N",
            "Week 16",
            16,
            "WEEK 6",
            7,
            42,
            19539,
            "CIBICVAL",
            "CIBIC Score",
            1,
            4,
            "Y",
            "LOCF",
            "85-140",
            112,
            70,
            85,
            140,
            "DAYS",
            6001
          ],
          [
            39,
            "CDISCPILOT01",
            "701",
            "701",
            "01-701-1146",
            19498,
            19535,
            "Xanomeline High Dose",
            81,
            75,
            "65-80",
            2,
            "WHITE",
            1,
            "F",
            "Y",
            "Y",
            "N",
            "Week 24",
            24,
            "WEEK 6",
            7,
            42,
            19539,
            "CIBICVAL",
            "CIBIC Score",
            1,
            4,
            "Y",
            "LOCF",
            ">140",
            168,
            126,
            141,
            null,
            "DAYS",
            6001
          ],
          [
            40,
            "CDISCPILOT01",
            "701",
            "701",
            "01-701-1148",
            19593,
            19774,
            "Xanomeline High Dose",
            81,
            57,
            "<65",
            1,
            "WHITE",
            1,
            "M",
            "Y",
            "Y",
            "Y",
            "Week 8",
            8,
            "WEEK 8",
            8,
            57,
            19649,
            "CIBICVAL",
            "CIBIC Score",
            1,
            5,
            "Y",
            "",
            "2-84",
            56,
            1,
            2,
            84,
            "DAYS",
            6001
          ],
          [
            41,
            "CDISCPILOT01",
            "701",
            "701",
            "01-701-1148",
            19593,
            19774,
            "Xanomeline High Dose",
            81,
            57,
            "<65",
            1,
            "WHITE",
            1,
            "M",
            "Y",
            "Y",
            "Y",
            "Week 16",
            16,
            "WEEK 16",
            10,
            113,
            19705,
            "CIBICVAL",
            "CIBIC Score",
            1,
            4,
            "Y",
            "",
            "85-140",
            112,
            1,
            85,
            140,
            "DAYS",
            6002
          ],
          [
            42,
            "CDISCPILOT01",
            "701",
            "701",
            "01-701-1148",
            19593,
            19774,
            "Xanomeline High Dose",
            81,
            57,
            "<65",
            1,
            "WHITE",
            1,
            "M",
            "Y",
            "Y",
            "Y",
            "Week 24",
            24,
            "WEEK 24",
            12,
            170,
            19762,
            "CIBICVAL",
            "CIBIC Score",
            1,
            5,
            "Y",
            "",
            ">140",
            168,
            2,
            141,
            null,
            "DAYS",
            6003
          ],
          [
            43,
            "CDISCPILOT01",
            "701",
            "701",
            "01-701-1153",
            19624,
            19798,
            "Placebo",
            0,
            79,
            "65-80",
            2,
            "WHITE",
            1,
            "F",
            "Y",
            "Y",
            "Y",
            "Week 8",
            8,
            "WEEK 8",
            8,
            57,
            19680,
            "CIBICVAL",
            "CIBIC Score",
            1,
            4,
            "Y",
            "",
            "2-84",
            56,
            1,
            2,
            84,
            "DAYS",
            6001
          ],
          [
            44,
            "CDISCPILOT01",
            "701",
            "701",
            "01-701-1153",
            19624,
            19798,
            "Placebo",
            0,
            79,
            "65-80",
            2,
            "WHITE",
            1,
            "F",
            "Y",
            "Y",
            "Y",
            "Week 16",
            16,
            "WEEK 16",
            10,
            108,
            19731,
            "CIBICVAL",
            "CIBIC Score",
            1,
            4,
            "Y",
            "",
            "85-140",
            112,
            4,
            85,
            140,
            "DAYS",
            6002
          ],
          [
            45,
            "CDISCPILOT01",
            "701",
            "701",
            "01-701-1153",
            19624,
            19798,
            "Placebo",
            0,
            79,
            "65-80",
            2,
            "WHITE",
            1,
            "F",
            "Y",
            "Y",
            "Y",
            "Week 24",
            24,
            "WEEK 24",
            12,
            170,
            19793,
            "CIBICVAL",
            "CIBIC Score",
            1,
            4,
            "Y",
            "",
            ">140",
            168,
            2,
            141,
            null,
            "DAYS",
            6003
          ],
          [
            46,
            "CDISCPILOT01",
            "701",
            "701",
            "01-701-1180",
            19401,
            19435,
            "Xanomeline High Dose",
            81,
            56,
            "<65",
            1,
            "WHITE",
            1,
            "M",
            "Y",
            "Y",
            "N",
            "Week 8",
            8,
            "WEEK 6",
            7,
            40,
            19440,
            "CIBICVAL",
            "CIBIC Score",
            1,
            5,
            "Y",
            "",
            "2-84",
            56,
            16,
            2,
            84,
            "DAYS",
            6001
          ],
          [
            47,
            "CDISCPILOT01",
            "701",
            "701",
            "01-701-1180",
            19401,
            19435,
            "Xanomeline High Dose",
            81,
            56,
            "<65",
            1,
            "WHITE",
            1,
            "M",
            "Y",
            "Y",
            "N",
            "Week 16",
            16,
            "WEEK 6",
            7,
            40,
            19440,
            "CIBICVAL",
            "CIBIC Score",
            1,
            5,
            "Y",
            "LOCF",
            "85-140",
            112,
            72,
            85,
            140,
            "DAYS",
            6001
          ],
          [
            48,
            "CDISCPILOT01",
            "701",
            "701",
            "01-701-1180",
            19401,
            19435,
            "Xanomeline High Dose",
            81,
            56,
            "<65",
            1,
            "WHITE",
            1,
            "M",
            "Y",
            "Y",
            "N",
            "Week 24",
            24,
            "WEEK 6",
            7,
            40,
            19440,
            "CIBICVAL",
            "CIBIC Score",
            1,
            5,
            "Y",
            "LOCF",
            ">140",
            168,
            128,
            141,
            null,
            "DAYS",
            6001
          ],
          [
            49,
            "CDISCPILOT01",
            "701",
            "701",
            "01-701-1181",
            19697,
            19701,
            "Xanomeline High Dose",
            81,
            79,
            "65-80",
            2,
            "WHITE",
            1,
            "F",
            "Y",
            "Y",
            "N",
            "Week 8",
            8,
            "WEEK 2",
            4,
            8,
            19704,
            "CIBICVAL",
            "CIBIC Score",
            1,
            4,
            "Y",
            "",
            "2-84",
            56,
            48,
            2,
            84,
            "DAYS",
            6001
          ],
          [
            50,
            "CDISCPILOT01",
            "701",
            "701",
            "01-701-1181",
            19697,
            19701,
            "Xanomeline High Dose",
            81,
            79,
            "65-80",
            2,
            "WHITE",
            1,
            "F",
            "Y",
            "Y",
            "N",
            "Week 16",
            16,
            "WEEK 2",
            4,
            8,
            19704,
            "CIBICVAL",
            "CIBIC Score",
            1,
            4,
            "Y",
            "LOCF",
            "85-140",
            112,
            104,
            85,
            140,
            "DAYS",
            6001
          ],
          [
            51,
            "CDISCPILOT01",
            "701",
            "701",
            "01-701-1181",
            19697,
            19701,
            "Xanomeline High Dose",
            81,
            79,
            "65-80",
            2,
            "WHITE",
            1,
            "F",
            "Y",
            "Y",
            "N",
            "Week 24",
            24,
            "RETRIEVAL",
            201,
            170,
            19866,
            "CIBICVAL",
            "CIBIC Score",
            1,
            5,
            "Y",
            "",
            ">140",
            168,
            2,
            141,
            null,
            "DAYS",
            6002
          ],
          [
            52,
            "CDISCPILOT01",
            "701",
            "701",
            "01-701-1188",
            19404,
            19441,
            "Xanomeline Low Dose",
            54,
            71,
            "65-80",
            2,
            "WHITE",
            1,
            "M",
            "Y",
            "Y",
            "N",
            "Week 8",
            8,
            "WEEK 6",
            7,
            39,
            19442,
            "CIBICVAL",
            "CIBIC Score",
            1,
            4,
            "Y",
            "",
            "2-84",
            56,
            17,
            2,
            84,
            "DAYS",
            6001
          ],
          [
            53,
            "CDISCPILOT01",
            "701",
            "701",
            "01-701-1188",
            19404,
            19441,
            "Xanomeline Low Dose",
            54,
            71,
            "65-80",
            2,
            "WHITE",
            1,
            "M",
            "Y",
            "Y",
            "N",
            "Week 16",
            16,
            "WEEK 6",
            7,
            39,
            19442,
            "CIBICVAL",
            "CIBIC Score",
            1,
            4,
            "Y",
            "LOCF",
            "85-140",
            112,
            73,
            85,
            140,
            "DAYS",
            6001
          ],
          [
            54,
            "CDISCPILOT01",
            "701",
            "701",
            "01-701-1188",
            19404,
            19441,
            "Xanomeline Low Dose",
            54,
            71,
            "65-80",
            2,
            "WHITE",
            1,
            "M",
            "Y",
            "Y",
            "N",
            "Week 24",
            24,
            "RETRIEVAL",
            201,
            171,
            19574,
            "CIBICVAL",
            "CIBIC Score",
            1,
            4,
            "Y",
            "",
            ">140",
            168,
            3,
            141,
            null,
            "DAYS",
            6002
          ],
          [
            55,
            "CDISCPILOT01",
            "701",
            "701",
            "01-701-1192",
            19196,
            19378,
            "Xanomeline Low Dose",
            54,
            80,
            "65-80",
            2,
            "WHITE",
            1,
            "F",
            "Y",
            "Y",
            "Y",
            "Week 8",
            8,
            "WEEK 8",
            8,
            64,
            19259,
            "CIBICVAL",
            "CIBIC Score",
            1,
            5,
            "Y",
            "",
            "2-84",
            56,
            8,
            2,
            84,
            "DAYS",
            6001
          ],
          [
            56,
            "CDISCPILOT01",
            "701",
            "701",
            "01-701-1192",
            19196,
            19378,
            "Xanomeline Low Dose",
            54,
            80,
            "65-80",
            2,
            "WHITE",
            1,
            "F",
            "Y",
            "Y",
            "Y",
            "Week 16",
            16,
            "WEEK 16",
            10,
            117,
            19312,
            "CIBICVAL",
            "CIBIC Score",
            1,
            4,
            "Y",
            "",
            "85-140",
            112,
            5,
            85,
            140,
            "DAYS",
            6002
          ],
          [
            57,
            "CDISCPILOT01",
            "701",
            "701",
            "01-701-1192",
            19196,
            19378,
            "Xanomeline Low Dose",
            54,
            80,
            "65-80",
            2,
            "WHITE",
            1,
            "F",
            "Y",
            "Y",
            "Y",
            "Week 24",
            24,
            "WEEK 24",
            12,
            174,
            19369,
            "CIBICVAL",
            "CIBIC Score",
            1,
            4,
            "Y",
            "",
            ">140",
            168,
            6,
            141,
            null,
            "DAYS",
            6003
          ],
          [
            58,
            "CDISCPILOT01",
            "701",
            "701",
            "01-701-1203",
            19391,
            19573,
            "Placebo",
            0,
            81,
            ">80",
            3,
            "BLACK OR AFRICAN AMERICAN",
            2,
            "F",
            "Y",
            "Y",
            "Y",
            "Week 8",
            8,
            "WEEK 8",
            8,
            57,
            19447,
            "CIBICVAL",
            "CIBIC Score",
            1,
            4,
            "Y",
            "",
            "2-84",
            56,
            1,
            2,
            84,
            "DAYS",
            6001
          ],
          [
            59,
            "CDISCPILOT01",
            "701",
            "701",
            "01-701-1203",
            19391,
            19573,
            "Placebo",
            0,
            81,
            ">80",
            3,
            "BLACK OR AFRICAN AMERICAN",
            2,
            "F",
            "Y",
            "Y",
            "Y",
            "Week 16",
            16,
            "WEEK 16",
            10,
            113,
            19503,
            "CIBICVAL",
            "CIBIC Score",
            1,
            4,
            "Y",
            "",
            "85-140",
            112,
            1,
            85,
            140,
            "DAYS",
            6002
          ],
          [
            60,
            "CDISCPILOT01",
            "701",
            "701",
            "01-701-1203",
            19391,
            19573,
            "Placebo",
            0,
            81,
            ">80",
            3,
            "BLACK OR AFRICAN AMERICAN",
            2,
            "F",
            "Y",
            "Y",
            "Y",
            "Week 24",
            24,
            "WEEK 24",
            12,
            171,
            19561,
            "CIBICVAL",
            "CIBIC Score",
            1,
            4,
            "Y",
            "",
            ">140",
            168,
            3,
            141,
            null,
            "DAYS",
            6003
          ],
          [
            61,
            "CDISCPILOT01",
            "701",
            "701",
            "01-701-1211",
            19312,
            19370,
            "Xanomeline Low Dose",
            54,
            76,
            "65-80",
            2,
            "WHITE",
            1,
            "F",
            "Y",
            "Y",
            "N",
            "Week 8",
            8,
            "WEEK 8",
            8,
            55,
            19366,
            "CIBICVAL",
            "CIBIC Score",
            1,
            5,
            "Y",
            "",
            "2-84",
            56,
            1,
            2,
            84,
            "DAYS",
            6001
          ],
          [
            62,
            "CDISCPILOT01",
            "701",
            "701",
            "01-701-1211",
            19312,
            19370,
            "Xanomeline Low Dose",
            54,
            76,
            "65-80",
            2,
            "WHITE",
            1,
            "F",
            "Y",
            "Y",
            "N",
            "Week 16",
            16,
            "WEEK 8",
            8,
            55,
            19366,
            "CIBICVAL",
            "CIBIC Score",
            1,
            5,
            "Y",
            "LOCF",
            "85-140",
            112,
            57,
            85,
            140,
            "DAYS",
            6001
          ],
          [
            63,
            "CDISCPILOT01",
            "701",
            "701",
            "01-701-1211",
            19312,
            19370,
            "Xanomeline Low Dose",
            54,
            76,
            "65-80",
            2,
            "WHITE",
            1,
            "F",
            "Y",
            "Y",
            "N",
            "Week 24",
            24,
            "WEEK 8",
            8,
            55,
            19366,
            "CIBICVAL",
            "CIBIC Score",
            1,
            5,
            "Y",
            "LOCF",
            ">140",
            168,
            113,
            141,
            null,
            "DAYS",
            6001
          ],
          [
            64,
            "CDISCPILOT01",
            "701",
            "701",
            "01-701-1234",
            19447,
            19623,
            "Placebo",
            0,
            69,
            "65-80",
            2,
            "WHITE",
            1,
            "M",
            "Y",
            "Y",
            "Y",
            "Week 8",
            8,
            "WEEK 8",
            8,
            58,
            19504,
            "CIBICVAL",
            "CIBIC Score",
            1,
            3,
            "Y",
            "",
            "2-84",
            56,
            2,
            2,
            84,
            "DAYS",
            6001
          ],
          [
            65,
            "CDISCPILOT01",
            "701",
            "701",
            "01-701-1234",
            19447,
            19623,
            "Placebo",
            0,
            69,
            "65-80",
            2,
            "WHITE",
            1,
            "M",
            "Y",
            "Y",
            "Y",
            "Week 16",
            16,
            "WEEK 16",
            10,
            120,
            19566,
            "CIBICVAL",
            "CIBIC Score",
            1,
            4,
            "Y",
            "",
            "85-140",
            112,
            8,
            85,
            140,
            "DAYS",
            6002
          ],
          [
            66,
            "CDISCPILOT01",
            "701",
            "701",
            "01-701-1234",
            19447,
            19623,
            "Placebo",
            0,
            69,
            "65-80",
            2,
            "WHITE",
            1,
            "M",
            "Y",
            "Y",
            "Y",
            "Week 24",
            24,
            "WEEK 24",
            12,
            165,
            19611,
            "CIBICVAL",
            "CIBIC Score",
            1,
            4,
            "Y",
            "",
            ">140",
            168,
            3,
            141,
            null,
            "DAYS",
            6003
          ],
          [
            67,
            "CDISCPILOT01",
            "701",
            "701",
            "01-701-1239",
            19734,
            19914,
            "Xanomeline High Dose",
            81,
            56,
            "<65",
            1,
            "WHITE",
            1,
            "M",
            "Y",
            "Y",
            "Y",
            "Week 8",
            8,
            "WEEK 8",
            8,
            55,
            19788,
            "CIBICVAL",
            "CIBIC Score",
            1,
            3,
            "Y",
            "",
            "2-84",
            56,
            1,
            2,
            84,
            "DAYS",
            6001
          ],
          [
            68,
            "CDISCPILOT01",
            "701",
            "701",
            "01-701-1239",
            19734,
            19914,
            "Xanomeline High Dose",
            81,
            56,
            "<65",
            1,
            "WHITE",
            1,
            "M",
            "Y",
            "Y",
            "Y",
            "Week 16",
            16,
            "WEEK 16",
            10,
            112,
            19845,
            "CIBICVAL",
            "CIBIC Score",
            1,
            2,
            "Y",
            "",
            "85-140",
            112,
            0,
            85,
            140,
            "DAYS",
            6002
          ],
          [
            69,
            "CDISCPILOT01",
            "701",
            "701",
            "01-701-1239",
            19734,
            19914,
            "Xanomeline High Dose",
            81,
            56,
            "<65",
            1,
            "WHITE",
            1,
            "M",
            "Y",
            "Y",
            "Y",
            "Week 24",
            24,
            "WEEK 24",
            12,
            168,
            19901,
            "CIBICVAL",
            "CIBIC Score",
            1,
            3,
            "Y",
            "",
            ">140",
            168,
            0,
            141,
            null,
            "DAYS",
            6003
          ],
          [
            70,
            "CDISCPILOT01",
            "701",
            "701",
            "01-701-1275",
            19761,
            19874,
            "Xanomeline High Dose",
            81,
            61,
            "<65",
            1,
            "AMERICAN INDIAN OR ALASKA NATIVE",
            6,
            "M",
            "Y",
            "Y",
            "N",
            "Week 8",
            8,
            "WEEK 8",
            8,
            58,
            19818,
            "CIBICVAL",
            "CIBIC Score",
            1,
            3,
            "Y",
            "",
            "2-84",
            56,
            2,
            2,
            84,
            "DAYS",
            6001
          ],
          [
            71,
            "CDISCPILOT01",
            "701",
            "701",
            "01-701-1275",
            19761,
            19874,
            "Xanomeline High Dose",
            81,
            61,
            "<65",
            1,
            "AMERICAN INDIAN OR ALASKA NATIVE",
            6,
            "M",
            "Y",
            "Y",
            "N",
            "Week 16",
            16,
            "WEEK 16",
            10,
            128,
            19888,
            "CIBICVAL",
            "CIBIC Score",
            1,
            4,
            "Y",
            "",
            "85-140",
            112,
            16,
            85,
            140,
            "DAYS",
            6002
          ],
          [
            72,
            "CDISCPILOT01",
            "701",
            "701",
            "01-701-1275",
            19761,
            19874,
            "Xanomeline High Dose",
            81,
            61,
            "<65",
            1,
            "AMERICAN INDIAN OR ALASKA NATIVE",
            6,
            "M",
            "Y",
            "Y",
            "N",
            "Week 24",
            24,
            "WEEK 16",
            10,
            128,
            19888,
            "CIBICVAL",
            "CIBIC Score",
            1,
            4,
            "Y",
            "LOCF",
            ">140",
            168,
            40,
            141,
            null,
            "DAYS",
            6002
          ],
          [
            73,
            "CDISCPILOT01",
            "701",
            "701",
            "01-701-1287",
            19748,
            19930,
            "Xanomeline High Dose",
            81,
            56,
            "<65",
            1,
            "WHITE",
            1,
            "F",
            "Y",
            "Y",
            "Y",
            "Week 8",
            8,
            "WEEK 8",
            8,
            56,
            19803,
            "CIBICVAL",
            "CIBIC Score",
            1,
            4,
            "Y",
            "",
            "2-84",
            56,
            0,
            2,
            84,
            "DAYS",
            6001
          ],
          [
            74,
            "CDISCPILOT01",
            "701",
            "701",
            "01-701-1287",
            19748,
            19930,
            "Xanomeline High Dose",
            81,
            56,
            "<65",
            1,
            "WHITE",
            1,
            "F",
            "Y",
            "Y",
            "Y",
            "Week 16",
            16,
            "WEEK 16",
            10,
            111,
            19858,
            "CIBICVAL",
            "CIBIC Score",
            1,
            4,
            "Y",
            "",
            "85-140",
            112,
            1,
            85,
            140,
            "DAYS",
            6002
          ],
          [
            75,
            "CDISCPILOT01",
            "701",
            "701",
            "01-701-1287",
            19748,
            19930,
            "Xanomeline High Dose",
            81,
            56,
            "<65",
            1,
            "WHITE",
            1,
            "F",
            "Y",
            "Y",
            "Y",
            "Week 24",
            24,
            "WEEK 24",
            12,
            169,
            19916,
            "CIBICVAL",
            "CIBIC Score",
            1,
            4,
            "Y",
            "",
            ">140",
            168,
            1,
            141,
            null,
            "DAYS",
            6003
          ],
          [
            76,
            "CDISCPILOT01",
            "701",
            "701",
            "01-701-1294",
            19441,
            19523,
            "Xanomeline Low Dose",
            54,
            67,
            "65-80",
            2,
            "WHITE",
            1,
            "M",
            "Y",
            "Y",
            "N",
            "Week 8",
            8,
            "WEEK 8",
            8,
            60,
            19500,
            "CIBICVAL",
            "CIBIC Score",
            1,
            5,
            "Y",
            "",
            "2-84",
            56,
            4,
            2,
            84,
            "DAYS",
            6001
          ],
          [
            77,
            "CDISCPILOT01",
            "701",
            "701",
            "01-701-1294",
            19441,
            19523,
            "Xanomeline Low Dose",
            54,
            67,
            "65-80",
            2,
            "WHITE",
            1,
            "M",
            "Y",
            "Y",
            "N",
            "Week 8",
            8,
            "WEEK 12",
            9,
            83,
            19523,
            "CIBICVAL",
            "CIBIC Score",
            1,
            4,
            "",
            "",
            "2-84",
            56,
            27,
            2,
            84,
            "DAYS",
            6002
          ],
          [
            78,
            "CDISCPILOT01",
            "701",
            "701",
            "01-701-1294",
            19441,
            19523,
            "Xanomeline Low Dose",
            54,
            67,
            "65-80",
            2,
            "WHITE",
            1,
            "M",
            "Y",
            "Y",
            "N",
            "Week 16",
            16,
            "WEEK 12",
            9,
            83,
            19523,
            "CIBICVAL",
            "CIBIC Score",
            1,
            5,
            "Y",
            "LOCF",
            "85-140",
            112,
            29,
            85,
            140,
            "DAYS",
            6002
          ],
          [
            79,
            "CDISCPILOT01",
            "701",
            "701",
            "01-701-1294",
            19441,
            19523,
            "Xanomeline Low Dose",
            54,
            67,
            "65-80",
            2,
            "WHITE",
            1,
            "M",
            "Y",
            "Y",
            "N",
            "Week 24",
            24,
            "RETRIEVAL",
            201,
            199,
            19639,
            "CIBICVAL",
            "CIBIC Score",
            1,
            5,
            "Y",
            "",
            ">140",
            168,
            31,
            141,
            null,
            "DAYS",
            6003
          ],
          [
            80,
            "CDISCPILOT01",
            "701",
            "701",
            "01-701-1302",
            19599,
            19667,
            "Xanomeline High Dose",
            81,
            61,
            "<65",
            1,
            "WHITE",
            1,
            "M",
            "Y",
            "Y",
            "N",
            "Week 8",
            8,
            "WEEK 8",
            8,
            55,
            19653,
            "CIBICVAL",
            "CIBIC Score",
            1,
            4,
            "Y",
            "",
            "2-84",
            56,
            1,
            2,
            84,
            "DAYS",
            6001
          ],
          [
            81,
            "CDISCPILOT01",
            "701",
            "701",
            "01-701-1302",
            19599,
            19667,
            "Xanomeline High Dose",
            81,
            61,
            "<65",
            1,
            "WHITE",
            1,
            "M",
            "Y",
            "Y",
            "N",
            "Week 8",
            8,
            "WEEK 12",
            9,
            69,
            19667,
            "CIBICVAL",
            "CIBIC Score",
            1,
            5,
            "",
            "",
            "2-84",
            56,
            13,
            2,
            84,
            "DAYS",
            6002
          ],
          [
            82,
            "CDISCPILOT01",
            "701",
            "701",
            "01-701-1302",
            19599,
            19667,
            "Xanomeline High Dose",
            81,
            61,
            "<65",
            1,
            "WHITE",
            1,
            "M",
            "Y",
            "Y",
            "N",
            "Week 16",
            16,
            "WEEK 12",
            9,
            69,
            19667,
            "CIBICVAL",
            "CIBIC Score",
            1,
            4,
            "Y",
            "LOCF",
            "85-140",
            112,
            43,
            85,
            140,
            "DAYS",
            6002
          ],
          [
            83,
            "CDISCPILOT01",
            "701",
            "701",
            "01-701-1302",
            19599,
            19667,
            "Xanomeline High Dose",
            81,
            61,
            "<65",
            1,
            "WHITE",
            1,
            "M",
            "Y",
            "Y",
            "N",
            "Week 24",
            24,
            "RETRIEVAL",
            201,
            169,
            19767,
            "CIBICVAL",
            "CIBIC Score",
            1,
            4,
            "Y",
            "",
            ">140",
            168,
            1,
            141,
            null,
            "DAYS",
            6003
          ],
          [
            84,
            "CDISCPILOT01",
            "701",
            "701",
            "01-701-1317",
            19865,
            20047,
            "Xanomeline Low Dose",
            54,
            68,
            "65-80",
            2,
            "WHITE",
            1,
            "M",
            "Y",
            "Y",
            "Y",
            "Week 8",
            8,
            "WEEK 8",
            8,
            62,
            19926,
            "CIBICVAL",
            "CIBIC Score",
            1,
            4,
            "Y",
            "",
            "2-84",
            56,
            6,
            2,
            84,
            "DAYS",
            6001
          ],
          [
            85,
            "CDISCPILOT01",
            "701",
            "701",
            "01-701-1317",
            19865,
            20047,
            "Xanomeline Low Dose",
            54,
            68,
            "65-80",
            2,
            "WHITE",
            1,
            "M",
            "Y",
            "Y",
            "Y",
            "Week 16",
            16,
            "WEEK 16",
            10,
            113,
            19977,
            "CIBICVAL",
            "CIBIC Score",
            1,
            4,
            "Y",
            "",
            "85-140",
            112,
            1,
            85,
            140,
            "DAYS",
            6002
          ],
          [
            86,
            "CDISCPILOT01",
            "701",
            "701",
            "01-701-1317",
            19865,
            20047,
            "Xanomeline Low Dose",
            54,
            68,
            "65-80",
            2,
            "WHITE",
            1,
            "M",
            "Y",
            "Y",
            "Y",
            "Week 24",
            24,
            "WEEK 24",
            12,
            169,
            20033,
            "CIBICVAL",
            "CIBIC Score",
            1,
            4,
            "Y",
            "",
            ">140",
            168,
            1,
            141,
            null,
            "DAYS",
            6003
          ],
          [
            87,
            "CDISCPILOT01",
            "701",
            "701",
            "01-701-1324",
            19268,
            19450,
            "Xanomeline Low Dose",
            54,
            79,
            "65-80",
            2,
            "WHITE",
            1,
            "M",
            "Y",
            "Y",
            "Y",
            "Week 8",
            8,
            "WEEK 8",
            8,
            55,
            19322,
            "CIBICVAL",
            "CIBIC Score",
            1,
            4,
            "Y",
            "",
            "2-84",
            56,
            1,
            2,
            84,
            "DAYS",
            6001
          ],
          [
            88,
            "CDISCPILOT01",
            "701",
            "701",
            "01-701-1324",
            19268,
            19450,
            "Xanomeline Low Dose",
            54,
            79,
            "65-80",
            2,
            "WHITE",
            1,
            "M",
            "Y",
            "Y",
            "Y",
            "Week 16",
            16,
            "WEEK 16",
            10,
            113,
            19380,
            "CIBICVAL",
            "CIBIC Score",
            1,
            4,
            "Y",
            "",
            "85-140",
            112,
            1,
            85,
            140,
            "DAYS",
            6002
          ],
          [
            89,
            "CDISCPILOT01",
            "701",
            "701",
            "01-701-1324",
            19268,
            19450,
            "Xanomeline Low Dose",
            54,
            79,
            "65-80",
            2,
            "WHITE",
            1,
            "M",
            "Y",
            "Y",
            "Y",
            "Week 24",
            24,
            "WEEK 24",
            12,
            169,
            19436,
            "CIBICVAL",
            "CIBIC Score",
            1,
            5,
            "Y",
            "",
            ">140",
            168,
            1,
            141,
            null,
            "DAYS",
            6003
          ],
          [
            90,
            "CDISCPILOT01",
            "701",
            "701",
            "01-701-1341",
            19363,
            19384,
            "Xanomeline Low Dose",
            54,
            51,
            "<65",
            1,
            "WHITE",
            1,
            "M",
            "Y",
            "Y",
            "N",
            "Week 8",
            8,
            "WEEK 4",
            5,
            34,
            19396,
            "CIBICVAL",
            "CIBIC Score",
            1,
            4,
            "Y",
            "",
            "2-84",
            56,
            22,
            2,
            84,
            "DAYS",
            6001
          ],
          [
            91,
            "CDISCPILOT01",
            "701",
            "701",
            "01-701-1341",
            19363,
            19384,
            "Xanomeline Low Dose",
            54,
            51,
            "<65",
            1,
            "WHITE",
            1,
            "M",
            "Y",
            "Y",
            "N",
            "Week 16",
            16,
            "WEEK 4",
            5,
            34,
            19396,
            "CIBICVAL",
            "CIBIC Score",
            1,
            4,
            "Y",
            "LOCF",
            "85-140",
            112,
            78,
            85,
            140,
            "DAYS",
            6001
          ],
          [
            92,
            "CDISCPILOT01",
            "701",
            "701",
            "01-701-1341",
            19363,
            19384,
            "Xanomeline Low Dose",
            54,
            51,
            "<65",
            1,
            "WHITE",
            1,
            "M",
            "Y",
            "Y",
            "N",
            "Week 24",
            24,
            "WEEK 4",
            5,
            34,
            19396,
            "CIBICVAL",
            "CIBIC Score",
            1,
            4,
            "Y",
            "LOCF",
            ">140",
            168,
            134,
            141,
            null,
            "DAYS",
            6001
          ],
          [
            93,
            "CDISCPILOT01",
            "701",
            "701",
            "01-701-1345",
            19639,
            19800,
            "Placebo",
            0,
            63,
            "<65",
            1,
            "WHITE",
            1,
            "F",
            "Y",
            "Y",
            "Y",
            "Week 8",
            8,
            "WEEK 8",
            8,
            57,
            19695,
            "CIBICVAL",
            "CIBIC Score",
            1,
            4,
            "Y",
            "",
            "2-84",
            56,
            1,
            2,
            84,
            "DAYS",
            6001
          ],
          [
            94,
            "CDISCPILOT01",
            "701",
            "701",
            "01-701-1345",
            19639,
            19800,
            "Placebo",
            0,
            63,
            "<65",
            1,
            "WHITE",
            1,
            "F",
            "Y",
            "Y",
            "Y",
            "Week 16",
            16,
            "WEEK 16",
            10,
            112,
            19750,
            "CIBICVAL",
            "CIBIC Score",
            1,
            5,
            "Y",
            "",
            "85-140",
            112,
            0,
            85,
            140,
            "DAYS",
            6002
          ],
          [
            95,
            "CDISCPILOT01",
            "701",
            "701",
            "01-701-1345",
            19639,
            19800,
            "Placebo",
            0,
            63,
            "<65",
            1,
            "WHITE",
            1,
            "F",
            "Y",
            "Y",
            "Y",
            "Week 24",
            24,
            "WEEK 24",
            12,
            162,
            19800,
            "CIBICVAL",
            "CIBIC Score",
            1,
            5,
            "Y",
            "",
            ">140",
            168,
            6,
            141,
            null,
            "DAYS",
            6003
          ],
          [
            96,
            "CDISCPILOT01",
            "701",
            "701",
            "01-701-1360",
            19570,
            19575,
            "Xanomeline High Dose",
            81,
            67,
            "65-80",
            2,
            "WHITE",
            1,
            "M",
            "Y",
            "Y",
            "N",
            "Week 8",
            8,
            "WEEK 2",
            4,
            15,
            19584,
            "CIBICVAL",
            "CIBIC Score",
            1,
            4,
            "Y",
            "",
            "2-84",
            56,
            41,
            2,
            84,
            "DAYS",
            6001
          ],
          [
            97,
            "CDISCPILOT01",
            "701",
            "701",
            "01-701-1360",
            19570,
            19575,
            "Xanomeline High Dose",
            81,
            67,
            "65-80",
            2,
            "WHITE",
            1,
            "M",
            "Y",
            "Y",
            "N",
            "Week 16",
            16,
            "WEEK 2",
            4,
            15,
            19584,
            "CIBICVAL",
            "CIBIC Score",
            1,
            4,
            "Y",
            "LOCF",
            "85-140",
            112,
            97,
            85,
            140,
            "DAYS",
            6001
          ],
          [
            98,
            "CDISCPILOT01",
            "701",
            "701",
            "01-701-1360",
            19570,
            19575,
            "Xanomeline High Dose",
            81,
            67,
            "65-80",
            2,
            "WHITE",
            1,
            "M",
            "Y",
            "Y",
            "N",
            "Week 24",
            24,
            "RETRIEVAL",
            201,
            196,
            19765,
            "CIBICVAL",
            "CIBIC Score",
            1,
            4,
            "Y",
            "",
            ">140",
            168,
            28,
            141,
            null,
            "DAYS",
            6002
          ],
          [
            99,
            "CDISCPILOT01",
            "701",
            "701",
            "01-701-1363",
            19508,
            19689,
            "Placebo",
            0,
            81,
            ">80",
            3,
            "BLACK OR AFRICAN AMERICAN",
            2,
            "F",
            "Y",
            "Y",
            "Y",
            "Week 8",
            8,
            "WEEK 8",
            8,
            56,
            19563,
            "CIBICVAL",
            "CIBIC Score",
            1,
            5,
            "Y",
            "",
            "2-84",
            56,
            0,
            2,
            84,
            "DAYS",
            6001
          ],
          [
            100,
            "CDISCPILOT01",
            "701",
            "701",
            "01-701-1363",
            19508,
            19689,
            "Placebo",
            0,
            81,
            ">80",
            3,
            "BLACK OR AFRICAN AMERICAN",
            2,
            "F",
            "Y",
            "Y",
            "Y",
            "Week 16",
            16,
            "WEEK 16",
            10,
            112,
            19619,
            "CIBICVAL",
            "CIBIC Score",
            1,
            4,
            "Y",
            "",
            "85-140",
            112,
            0,
            85,
            140,
            "DAYS",
            6002
          ],
          [
            101,
            "CDISCPILOT01",
            "701",
            "701",
            "01-701-1363",
            19508,
            19689,
            "Placebo",
            0,
            81,
            ">80",
            3,
            "BLACK OR AFRICAN AMERICAN",
            2,
            "F",
            "Y",
            "Y",
            "Y",
            "Week 24",
            24,
            "WEEK 24",
            12,
            168,
            19675,
            "CIBICVAL",
            "CIBIC Score",
            1,
            5,
            "Y",
            "",
            ">140",
            168,
            0,
            141,
            null,
            "DAYS",
            6003
          ],
          [
            102,
            "CDISCPILOT01",
            "701",
            "701",
            "01-701-1383",
            19393,
            19576,
            "Xanomeline High Dose",
            81,
            72,
            "65-80",
            2,
            "WHITE",
            1,
            "F",
            "Y",
            "Y",
            "Y",
            "Week 8",
            8,
            "WEEK 8",
            8,
            58,
            19450,
            "CIBICVAL",
            "CIBIC Score",
            1,
            4,
            "Y",
            "",
            "2-84",
            56,
            2,
            2,
            84,
            "DAYS",
            6001
          ],
          [
            103,
            "CDISCPILOT01",
            "701",
            "701",
            "01-701-1383",
            19393,
            19576,
            "Xanomeline High Dose",
            81,
            72,
            "65-80",
            2,
            "WHITE",
            1,
            "F",
            "Y",
            "Y",
            "Y",
            "Week 16",
            16,
            "WEEK 16",
            10,
            116,
            19508,
            "CIBICVAL",
            "CIBIC Score",
            1,
            4,
            "Y",
            "",
            "85-140",
            112,
            4,
            85,
            140,
            "DAYS",
            6002
          ],
          [
            104,
            "CDISCPILOT01",
            "701",
            "701",
            "01-701-1383",
            19393,
            19576,
            "Xanomeline High Dose",
            81,
            72,
            "65-80",
            2,
            "WHITE",
            1,
            "F",
            "Y",
            "Y",
            "Y",
            "Week 24",
            24,
            "WEEK 24",
            12,
            177,
            19569,
            "CIBICVAL",
            "CIBIC Score",
            1,
            5,
            "Y",
            "",
            ">140",
            168,
            9,
            141,
            null,
            "DAYS",
            6003
          ],
          [
            105,
            "CDISCPILOT01",
            "701",
            "701",
            "01-701-1387",
            19794,
            19807,
            "Placebo",
            0,
            87,
            ">80",
            3,
            "WHITE",
            1,
            "F",
            "Y",
            "Y",
            "N",
            "Week 8",
            8,
            "WEEK 2",
            4,
            14,
            19807,
            "CIBICVAL",
            "CIBIC Score",
            1,
            3,
            "Y",
            "",
            "2-84",
            56,
            42,
            2,
            84,
            "DAYS",
            6001
          ],
          [
            106,
            "CDISCPILOT01",
            "701",
            "701",
            "01-701-1387",
            19794,
            19807,
            "Placebo",
            0,
            87,
            ">80",
            3,
            "WHITE",
            1,
            "F",
            "Y",
            "Y",
            "N",
            "Week 16",
            16,
            "WEEK 2",
            4,
            14,
            19807,
            "CIBICVAL",
            "CIBIC Score",
            1,
            3,
            "Y",
            "LOCF",
            "85-140",
            112,
            98,
            85,
            140,
            "DAYS",
            6001
          ],
          [
            107,
            "CDISCPILOT01",
            "701",
            "701",
            "01-701-1387",
            19794,
            19807,
            "Placebo",
            0,
            87,
            ">80",
            3,
            "WHITE",
            1,
            "F",
            "Y",
            "Y",
            "N",
            "Week 24",
            24,
            "RETRIEVAL",
            201,
            169,
            19962,
            "CIBICVAL",
            "CIBIC Score",
            1,
            6,
            "Y",
            "",
            ">140",
            168,
            1,
            141,
            null,
            "DAYS",
            6002
          ],
          [
            108,
            "CDISCPILOT01",
            "701",
            "701",
            "01-701-1392",
            19294,
            19476,
            "Placebo",
            0,
            78,
            "65-80",
            2,
            "WHITE",
            1,
            "M",
            "Y",
            "Y",
            "Y",
            "Week 8",
            8,
            "WEEK 8",
            8,
            54,
            19347,
            "CIBICVAL",
            "CIBIC Score",
            1,
            4,
            "Y",
            "",
            "2-84",
            56,
            2,
            2,
            84,
            "DAYS",
            6001
          ],
          [
            109,
            "CDISCPILOT01",
            "701",
            "701",
            "01-701-1392",
            19294,
            19476,
            "Placebo",
            0,
            78,
            "65-80",
            2,
            "WHITE",
            1,
            "M",
            "Y",
            "Y",
            "Y",
            "Week 16",
            16,
            "WEEK 16",
            10,
            113,
            19406,
            "CIBICVAL",
            "CIBIC Score",
            1,
            5,
            "Y",
            "",
            "85-140",
            112,
            1,
            85,
            140,
            "DAYS",
            6002
          ],
          [
            110,
            "CDISCPILOT01",
            "701",
            "701",
            "01-701-1392",
            19294,
            19476,
            "Placebo",
            0,
            78,
            "65-80",
            2,
            "WHITE",
            1,
            "M",
            "Y",
            "Y",
            "Y",
            "Week 24",
            24,
            "WEEK 24",
            12,
            170,
            19463,
            "CIBICVAL",
            "CIBIC Score",
            1,
            4,
            "Y",
            "",
            ">140",
            168,
            2,
            141,
            null,
            "DAYS",
            6003
          ],
          [
            111,
            "CDISCPILOT01",
            "701",
            "701",
            "01-701-1415",
            19624,
            19806,
            "Placebo",
            0,
            85,
            ">80",
            3,
            "WHITE",
            1,
            "M",
            "Y",
            "Y",
            "Y",
            "Week 8",
            8,
            "WEEK 8",
            8,
            60,
            19683,
            "CIBICVAL",
            "CIBIC Score",
            1,
            5,
            "Y",
            "",
            "2-84",
            56,
            4,
            2,
            84,
            "DAYS",
            6001
          ],
          [
            112,
            "CDISCPILOT01",
            "701",
            "701",
            "01-701-1415",
            19624,
            19806,
            "Placebo",
            0,
            85,
            ">80",
            3,
            "WHITE",
            1,
            "M",
            "Y",
            "Y",
            "Y",
            "Week 16",
            16,
            "WEEK 16",
            10,
            114,
            19737,
            "CIBICVAL",
            "CIBIC Score",
            1,
            4,
            "Y",
            "",
            "85-140",
            112,
            2,
            85,
            140,
            "DAYS",
            6002
          ],
          [
            113,
            "CDISCPILOT01",
            "701",
            "701",
            "01-701-1415",
            19624,
            19806,
            "Placebo",
            0,
            85,
            ">80",
            3,
            "WHITE",
            1,
            "M",
            "Y",
            "Y",
            "Y",
            "Week 24",
            24,
            "WEEK 24",
            12,
            169,
            19792,
            "CIBICVAL",
            "CIBIC Score",
            1,
            4,
            "Y",
            "",
            ">140",
            168,
            1,
            141,
            null,
            "DAYS",
            6003
          ],
          [
            114,
            "CDISCPILOT01",
            "701",
            "701",
            "01-701-1429",
            19436,
            19478,
            "Xanomeline Low Dose",
            54,
            84,
            ">80",
            3,
            "WHITE",
            1,
            "F",
            "Y",
            "Y",
            "N",
            "Week 8",
            8,
            "WEEK 6",
            7,
            43,
            19478,
            "CIBICVAL",
            "CIBIC Score",
            1,
            3,
            "Y",
            "",
            "2-84",
            56,
            13,
            2,
            84,
            "DAYS",
            6001
          ],
          [
            115,
            "CDISCPILOT01",
            "701",
            "701",
            "01-701-1429",
            19436,
            19478,
            "Xanomeline Low Dose",
            54,
            84,
            ">80",
            3,
            "WHITE",
            1,
            "F",
            "Y",
            "Y",
            "N",
            "Week 16",
            16,
            "WEEK 6",
            7,
            43,
            19478,
            "CIBICVAL",
            "CIBIC Score",
            1,
            3,
            "Y",
            "LOCF",
            "85-140",
            112,
            69,
            85,
            140,
            "DAYS",
            6001
          ],
          [
            116,
            "CDISCPILOT01",
            "701",
            "701",
            "01-701-1429",
            19436,
            19478,
            "Xanomeline Low Dose",
            54,
            84,
            ">80",
            3,
            "WHITE",
            1,
            "F",
            "Y",
            "Y",
            "N",
            "Week 24",
            24,
            "WEEK 6",
            7,
            43,
            19478,
            "CIBICVAL",
            "CIBIC Score",
            1,
            3,
            "Y",
            "LOCF",
            ">140",
            168,
            125,
            141,
            null,
            "DAYS",
            6001
          ],
          [
            117,
            "CDISCPILOT01",
            "701",
            "701",
            "01-701-1440",
            19578,
            19759,
            "Placebo",
            0,
            70,
            "65-80",
            2,
            "WHITE",
            1,
            "M",
            "Y",
            "Y",
            "Y",
            "Week 8",
            8,
            "WEEK 8",
            8,
            57,
            19634,
            "CIBICVAL",
            "CIBIC Score",
            1,
            3,
            "Y",
            "",
            "2-84",
            56,
            1,
            2,
            84,
            "DAYS",
            6001
          ],
          [
            118,
            "CDISCPILOT01",
            "701",
            "701",
            "01-701-1440",
            19578,
            19759,
            "Placebo",
            0,
            70,
            "65-80",
            2,
            "WHITE",
            1,
            "M",
            "Y",
            "Y",
            "Y",
            "Week 16",
            16,
            "WEEK 16",
            10,
            112,
            19689,
            "CIBICVAL",
            "CIBIC Score",
            1,
            5,
            "Y",
            "",
            "85-140",
            112,
            0,
            85,
            140,
            "DAYS",
            6002
          ],
          [
            119,
            "CDISCPILOT01",
            "701",
            "701",
            "01-701-1440",
            19578,
            19759,
            "Placebo",
            0,
            70,
            "65-80",
            2,
            "WHITE",
            1,
            "M",
            "Y",
            "Y",
            "Y",
            "Week 24",
            24,
            "WEEK 24",
            12,
            168,
            19745,
            "CIBICVAL",
            "CIBIC Score",
            1,
            5,
            "Y",
            "",
            ">140",
            168,
            0,
            141,
            null,
            "DAYS",
            6003
          ],
          [
            120,
            "CDISCPILOT01",
            "701",
            "701",
            "01-701-1442",
            19657,
            19839,
            "Xanomeline Low Dose",
            54,
            57,
            "<65",
            1,
            "BLACK OR AFRICAN AMERICAN",
            2,
            "F",
            "Y",
            "Y",
            "Y",
            "Week 8",
            8,
            "WEEK 8",
            8,
            62,
            19718,
            "CIBICVAL",
            "CIBIC Score",
            1,
            4,
            "Y",
            "",
            "2-84",
            56,
            6,
            2,
            84,
            "DAYS",
            6001
          ],
          [
            121,
            "CDISCPILOT01",
            "701",
            "701",
            "01-701-1442",
            19657,
            19839,
            "Xanomeline Low Dose",
            54,
            57,
            "<65",
            1,
            "BLACK OR AFRICAN AMERICAN",
            2,
            "F",
            "Y",
            "Y",
            "Y",
            "Week 16",
            16,
            "WEEK 16",
            10,
            113,
            19769,
            "CIBICVAL",
            "CIBIC Score",
            1,
            4,
            "Y",
            "",
            "85-140",
            112,
            1,
            85,
            140,
            "DAYS",
            6002
          ],
          [
            122,
            "CDISCPILOT01",
            "701",
            "701",
            "01-701-1442",
            19657,
            19839,
            "Xanomeline Low Dose",
            54,
            57,
            "<65",
            1,
            "BLACK OR AFRICAN AMERICAN",
            2,
            "F",
            "Y",
            "Y",
            "Y",
            "Week 24",
            24,
            "WEEK 24",
            12,
            174,
            19830,
            "CIBICVAL",
            "CIBIC Score",
            1,
            4,
            "Y",
            "",
            ">140",
            168,
            6,
            141,
            null,
            "DAYS",
            6003
          ],
          [
            123,
            "CDISCPILOT01",
            "701",
            "701",
            "01-701-1444",
            19363,
            19401,
            "Xanomeline High Dose",
            81,
            63,
            "<65",
            1,
            "WHITE",
            1,
            "M",
            "Y",
            "Y",
            "N",
            "Week 8",
            8,
            "WEEK 6",
            7,
            40,
            19402,
            "CIBICVAL",
            "CIBIC Score",
            1,
            5,
            "Y",
            "",
            "2-84",
            56,
            16,
            2,
            84,
            "DAYS",
            6001
          ],
          [
            124,
            "CDISCPILOT01",
            "701",
            "701",
            "01-701-1444",
            19363,
            19401,
            "Xanomeline High Dose",
            81,
            63,
            "<65",
            1,
            "WHITE",
            1,
            "M",
            "Y",
            "Y",
            "N",
            "Week 16",
            16,
            "WEEK 6",
            7,
            40,
            19402,
            "CIBICVAL",
            "CIBIC Score",
            1,
            5,
            "Y",
            "LOCF",
            "85-140",
            112,
            72,
            85,
            140,
            "DAYS",
            6001
          ],
          [
            125,
            "CDISCPILOT01",
            "701",
            "701",
            "01-701-1444",
            19363,
            19401,
            "Xanomeline High Dose",
            81,
            63,
            "<65",
            1,
            "WHITE",
            1,
            "M",
            "Y",
            "Y",
            "N",
            "Week 24",
            24,
            "RETRIEVAL",
            201,
            167,
            19529,
            "CIBICVAL",
            "CIBIC Score",
            1,
            5,
            "Y",
            "",
            ">140",
            168,
            1,
            141,
            null,
            "DAYS",
            6002
          ],
          [
            126,
            "CDISCPILOT01",
            "702",
            "900",
            "01-702-1082",
            19565,
            19644,
            "Xanomeline Low Dose",
            54,
            84,
            ">80",
            3,
            "WHITE",
            1,
            "F",
            "Y",
            "Y",
            "N",
            "Week 8",
            8,
            "WEEK 8",
            8,
            65,
            19629,
            "CIBICVAL",
            "CIBIC Score",
            1,
            4,
            "Y",
            "",
            "2-84",
            56,
            9,
            2,
            84,
            "DAYS",
            6001
          ],
          [
            127,
            "CDISCPILOT01",
            "702",
            "900",
            "01-702-1082",
            19565,
            19644,
            "Xanomeline Low Dose",
            54,
            84,
            ">80",
            3,
            "WHITE",
            1,
            "F",
            "Y",
            "Y",
            "N",
            "Week 16",
            16,
            "WEEK 12",
            9,
            115,
            19679,
            "CIBICVAL",
            "CIBIC Score",
            1,
            4,
            "Y",
            "",
            "85-140",
            112,
            3,
            85,
            140,
            "DAYS",
            6002
          ],
          [
            128,
            "CDISCPILOT01",
            "702",
            "900",
            "01-702-1082",
            19565,
            19644,
            "Xanomeline Low Dose",
            54,
            84,
            ">80",
            3,
            "WHITE",
            1,
            "F",
            "Y",
            "Y",
            "N",
            "Week 24",
            24,
            "WEEK 12",
            9,
            115,
            19679,
            "CIBICVAL",
            "CIBIC Score",
            1,
            4,
            "Y",
            "LOCF",
            ">140",
            168,
            53,
            141,
            null,
            "DAYS",
            6002
          ],
          [
            129,
            "CDISCPILOT01",
            "703",
            "703",
            "01-703-1042",
            19419,
            19601,
            "Placebo",
            0,
            64,
            "<65",
            1,
            "WHITE",
            1,
            "M",
            "Y",
            "Y",
            "Y",
            "Week 16",
            16,
            "WEEK 16",
            10,
            113,
            19531,
            "CIBICVAL",
            "CIBIC Score",
            1,
            4,
            "Y",
            "",
            "85-140",
            112,
            1,
            85,
            140,
            "DAYS",
            6001
          ],
          [
            130,
            "CDISCPILOT01",
            "703",
            "703",
            "01-703-1042",
            19419,
            19601,
            "Placebo",
            0,
            64,
            "<65",
            1,
            "WHITE",
            1,
            "M",
            "Y",
            "Y",
            "Y",
            "Week 24",
            24,
            "WEEK 24",
            12,
            161,
            19579,
            "CIBICVAL",
            "CIBIC Score",
            1,
            4,
            "Y",
            "",
            ">140",
            168,
            7,
            141,
            null,
            "DAYS",
            6002
          ],
          [
            131,
            "CDISCPILOT01",
            "703",
            "703",
            "01-703-1076",
            19656,
            19716,
            "Xanomeline High Dose",
            81,
            69,
            "65-80",
            2,
            "WHITE",
            1,
            "M",
            "Y",
            "Y",
            "N",
            "Week 8",
            8,
            "WEEK 8",
            8,
            54,
            19709,
            "CIBICVAL",
            "CIBIC Score",
            1,
            3,
            "Y",
            "",
            "2-84",
            56,
            2,
            2,
            84,
            "DAYS",
            6001
          ],
          [
            132,
            "CDISCPILOT01",
            "703",
            "703",
            "01-703-1076",
            19656,
            19716,
            "Xanomeline High Dose",
            81,
            69,
            "65-80",
            2,
            "WHITE",
            1,
            "M",
            "Y",
            "Y",
            "N",
            "Week 8",
            8,
            "WEEK 12",
            9,
            61,
            19716,
            "CIBICVAL",
            "CIBIC Score",
            1,
            3,
            "",
            "",
            "2-84",
            56,
            5,
            2,
            84,
            "DAYS",
            6002
          ],
          [
            133,
            "CDISCPILOT01",
            "703",
            "703",
            "01-703-1076",
            19656,
            19716,
            "Xanomeline High Dose",
            81,
            69,
            "65-80",
            2,
            "WHITE",
            1,
            "M",
            "Y",
            "Y",
            "N",
            "Week 16",
            16,
            "WEEK 12",
            9,
            61,
            19716,
            "CIBICVAL",
            "CIBIC Score",
            1,
            3,
            "Y",
            "LOCF",
            "85-140",
            112,
            51,
            85,
            140,
            "DAYS",
            6002
          ],
          [
            134,
            "CDISCPILOT01",
            "703",
            "703",
            "01-703-1076",
            19656,
            19716,
            "Xanomeline High Dose",
            81,
            69,
            "65-80",
            2,
            "WHITE",
            1,
            "M",
            "Y",
            "Y",
            "N",
            "Week 24",
            24,
            "WEEK 12",
            9,
            61,
            19716,
            "CIBICVAL",
            "CIBIC Score",
            1,
            3,
            "Y",
            "LOCF",
            ">140",
            168,
            107,
            141,
            null,
            "DAYS",
            6002
          ],
          [
            135,
            "CDISCPILOT01",
            "703",
            "703",
            "01-703-1086",
            19238,
            19331,
            "Xanomeline Low Dose",
            54,
            71,
            "65-80",
            2,
            "WHITE",
            1,
            "M",
            "Y",
            "Y",
            "N",
            "Week 8",
            8,
            "WEEK 8",
            8,
            56,
            19293,
            "CIBICVAL",
            "CIBIC Score",
            1,
            3,
            "Y",
            "",
            "2-84",
            56,
            0,
            2,
            84,
            "DAYS",
            6001
          ],
          [
            136,
            "CDISCPILOT01",
            "703",
            "703",
            "01-703-1086",
            19238,
            19331,
            "Xanomeline Low Dose",
            54,
            71,
            "65-80",
            2,
            "WHITE",
            1,
            "M",
            "Y",
            "Y",
            "N",
            "Week 16",
            16,
            "WEEK 16",
            10,
            114,
            19351,
            "CIBICVAL",
            "CIBIC Score",
            1,
            3,
            "Y",
            "",
            "85-140",
            112,
            2,
            85,
            140,
            "DAYS",
            6002
          ],
          [
            137,
            "CDISCPILOT01",
            "703",
            "703",
            "01-703-1086",
            19238,
            19331,
            "Xanomeline Low Dose",
            54,
            71,
            "65-80",
            2,
            "WHITE",
            1,
            "M",
            "Y",
            "Y",
            "N",
            "Week 24",
            24,
            "RETRIEVAL",
            201,
            206,
            19443,
            "CIBICVAL",
            "CIBIC Score",
            1,
            3,
            "Y",
            "",
            ">140",
            168,
            38,
            141,
            null,
            "DAYS",
            6003
          ],
          [
            138,
            "CDISCPILOT01",
            "703",
            "703",
            "01-703-1100",
            19430,
            19615,
            "Placebo",
            0,
            84,
            ">80",
            3,
            "WHITE",
            1,
            "F",
            "Y",
            "Y",
            "Y",
            "Week 8",
            8,
            "WEEK 8",
            8,
            57,
            19486,
            "CIBICVAL",
            "CIBIC Score",
            1,
            4,
            "Y",
            "",
            "2-84",
            56,
            1,
            2,
            84,
            "DAYS",
            6001
          ],
          [
            139,
            "CDISCPILOT01",
            "703",
            "703",
            "01-703-1100",
            19430,
            19615,
            "Placebo",
            0,
            84,
            ">80",
            3,
            "WHITE",
            1,
            "F",
            "Y",
            "Y",
            "Y",
            "Week 16",
            16,
            "WEEK 16",
            10,
            113,
            19542,
            "CIBICVAL",
            "CIBIC Score",
            1,
            4,
            "Y",
            "",
            "85-140",
            112,
            1,
            85,
            140,
            "DAYS",
            6002
          ],
          [
            140,
            "CDISCPILOT01",
            "703",
            "703",
            "01-703-1100",
            19430,
            19615,
            "Placebo",
            0,
            84,
            ">80",
            3,
            "WHITE",
            1,
            "F",
            "Y",
            "Y",
            "Y",
            "Week 24",
            24,
            "WEEK 24",
            12,
            169,
            19598,
            "CIBICVAL",
            "CIBIC Score",
            1,
            5,
            "Y",
            "",
            ">140",
            168,
            1,
            141,
            null,
            "DAYS",
            6003
          ],
          [
            141,
            "CDISCPILOT01",
            "703",
            "703",
            "01-703-1119",
            19409,
            19522,
            "Xanomeline Low Dose",
            54,
            81,
            ">80",
            3,
            "WHITE",
            1,
            "F",
            "Y",
            "Y",
            "N",
            "Week 8",
            8,
            "WEEK 8",
            8,
            59,
            19467,
            "CIBICVAL",
            "CIBIC Score",
            1,
            4,
            "Y",
            "",
            "2-84",
            56,
            3,
            2,
            84,
            "DAYS",
            6001
          ],
          [
            142,
            "CDISCPILOT01",
            "703",
            "703",
            "01-703-1119",
            19409,
            19522,
            "Xanomeline Low Dose",
            54,
            81,
            ">80",
            3,
            "WHITE",
            1,
            "F",
            "Y",
            "Y",
            "N",
            "Week 16",
            16,
            "WEEK 16",
            10,
            114,
            19522,
            "CIBICVAL",
            "CIBIC Score",
            1,
            5,
            "Y",
            "",
            "85-140",
            112,
            2,
            85,
            140,
            "DAYS",
            6002
          ],
          [
            143,
            "CDISCPILOT01",
            "703",
            "703",
            "01-703-1119",
            19409,
            19522,
            "Xanomeline Low Dose",
            54,
            81,
            ">80",
            3,
            "WHITE",
            1,
            "F",
            "Y",
            "Y",
            "N",
            "Week 24",
            24,
            "RETRIEVAL",
            201,
            186,
            19594,
            "CIBICVAL",
            "CIBIC Score",
            1,
            5,
            "Y",
            "",
            ">140",
            168,
            18,
            141,
            null,
            "DAYS",
            6003
          ],
          [
            144,
            "CDISCPILOT01",
            "703",
            "703",
            "01-703-1175",
            19712,
            19718,
            "Placebo",
            0,
            75,
            "65-80",
            2,
            "WHITE",
            1,
            "M",
            "Y",
            "Y",
            "N",
            "Week 8",
            8,
            "WEEK 2",
            4,
            12,
            19723,
            "CIBICVAL",
            "CIBIC Score",
            1,
            4,
            "Y",
            "",
            "2-84",
            56,
            44,
            2,
            84,
            "DAYS",
            6001
          ],
          [
            145,
            "CDISCPILOT01",
            "703",
            "703",
            "01-703-1175",
            19712,
            19718,
            "Placebo",
            0,
            75,
            "65-80",
            2,
            "WHITE",
            1,
            "M",
            "Y",
            "Y",
            "N",
            "Week 16",
            16,
            "WEEK 2",
            4,
            12,
            19723,
            "CIBICVAL",
            "CIBIC Score",
            1,
            4,
            "Y",
            "LOCF",
            "85-140",
            112,
            100,
            85,
            140,
            "DAYS",
            6001
          ],
          [
            146,
            "CDISCPILOT01",
            "703",
            "703",
            "01-703-1175",
            19712,
            19718,
            "Placebo",
            0,
            75,
            "65-80",
            2,
            "WHITE",
            1,
            "M",
            "Y",
            "Y",
            "N",
            "Week 24",
            24,
            "WEEK 2",
            4,
            12,
            19723,
            "CIBICVAL",
            "CIBIC Score",
            1,
            4,
            "Y",
            "LOCF",
            ">140",
            168,
            156,
            141,
            null,
            "DAYS",
            6001
          ],
          [
            147,
            "CDISCPILOT01",
            "703",
            "703",
            "01-703-1182",
            19648,
            19703,
            "Xanomeline Low Dose",
            54,
            84,
            ">80",
            3,
            "WHITE",
            1,
            "M",
            "Y",
            "Y",
            "N",
            "Week 8",
            8,
            "WEEK 8",
            8,
            57,
            19704,
            "CIBICVAL",
            "CIBIC Score",
            1,
            4,
            "Y",
            "",
            "2-84",
            56,
            1,
            2,
            84,
            "DAYS",
            6001
          ],
          [
            148,
            "CDISCPILOT01",
            "703",
            "703",
            "01-703-1182",
            19648,
            19703,
            "Xanomeline Low Dose",
            54,
            84,
            ">80",
            3,
            "WHITE",
            1,
            "M",
            "Y",
            "Y",
            "N",
            "Week 16",
            16,
            "WEEK 8",
            8,
            57,
            19704,
            "CIBICVAL",
            "CIBIC Score",
            1,
            4,
            "Y",
            "LOCF",
            "85-140",
            112,
            55,
            85,
            140,
            "DAYS",
            6001
          ],
          [
            149,
            "CDISCPILOT01",
            "703",
            "703",
            "01-703-1182",
            19648,
            19703,
            "Xanomeline Low Dose",
            54,
            84,
            ">80",
            3,
            "WHITE",
            1,
            "M",
            "Y",
            "Y",
            "N",
            "Week 24",
            24,
            "WEEK 8",
            8,
            57,
            19704,
            "CIBICVAL",
            "CIBIC Score",
            1,
            4,
            "Y",
            "LOCF",
            ">140",
            168,
            111,
            141,
            null,
            "DAYS",
            6001
          ],
          [
            150,
            "CDISCPILOT01",
            "703",
            "703",
            "01-703-1197",
            19525,
            19538,
            "Xanomeline Low Dose",
            54,
            76,
            "65-80",
            2,
            "BLACK OR AFRICAN AMERICAN",
            2,
            "F",
            "Y",
            "Y",
            "N",
            "Week 8",
            8,
            "WEEK 2",
            4,
            37,
            19561,
            "CIBICVAL",
            "CIBIC Score",
            1,
            4,
            "Y",
            "",
            "2-84",
            56,
            19,
            2,
            84,
            "DAYS",
            6001
          ],
          [
            151,
            "CDISCPILOT01",
            "703",
            "703",
            "01-703-1197",
            19525,
            19538,
            "Xanomeline Low Dose",
            54,
            76,
            "65-80",
            2,
            "BLACK OR AFRICAN AMERICAN",
            2,
            "F",
            "Y",
            "Y",
            "N",
            "Week 16",
            16,
            "WEEK 2",
            4,
            37,
            19561,
            "CIBICVAL",
            "CIBIC Score",
            1,
            4,
            "Y",
            "LOCF",
            "85-140",
            112,
            75,
            85,
            140,
            "DAYS",
            6001
          ],
          [
            152,
            "CDISCPILOT01",
            "703",
            "703",
            "01-703-1197",
            19525,
            19538,
            "Xanomeline Low Dose",
            54,
            76,
            "65-80",
            2,
            "BLACK OR AFRICAN AMERICAN",
            2,
            "F",
            "Y",
            "Y",
            "N",
            "Week 24",
            24,
            "WEEK 2",
            4,
            37,
            19561,
            "CIBICVAL",
            "CIBIC Score",
            1,
            4,
            "Y",
            "LOCF",
            ">140",
            168,
            131,
            141,
            null,
            "DAYS",
            6001
          ],
          [
            153,
            "CDISCPILOT01",
            "703",
            "703",
            "01-703-1210",
            19433,
            19607,
            "Placebo",
            0,
            72,
            "65-80",
            2,
            "WHITE",
            1,
            "F",
            "Y",
            "Y",
            "Y",
            "Week 8",
            8,
            "WEEK 8",
            8,
            56,
            19488,
            "CIBICVAL",
            "CIBIC Score",
            1,
            5,
            "Y",
            "",
            "2-84",
            56,
            0,
            2,
            84,
            "DAYS",
            6001
          ],
          [
            154,
            "CDISCPILOT01",
            "703",
            "703",
            "01-703-1210",
            19433,
            19607,
            "Placebo",
            0,
            72,
            "65-80",
            2,
            "WHITE",
            1,
            "F",
            "Y",
            "Y",
            "Y",
            "Week 16",
            16,
            "WEEK 16",
            10,
            112,
            19544,
            "CIBICVAL",
            "CIBIC Score",
            1,
            4,
            "Y",
            "",
            "85-140",
            112,
            0,
            85,
            140,
            "DAYS",
            6002
          ],
          [
            155,
            "CDISCPILOT01",
            "703",
            "703",
            "01-703-1210",
            19433,
            19607,
            "Placebo",
            0,
            72,
            "65-80",
            2,
            "WHITE",
            1,
            "F",
            "Y",
            "Y",
            "Y",
            "Week 24",
            24,
            "WEEK 24",
            12,
            162,
            19594,
            "CIBICVAL",
            "CIBIC Score",
            1,
            5,
            "Y",
            "",
            ">140",
            168,
            6,
            141,
            null,
            "DAYS",
            6003
          ],
          [
            156,
            "CDISCPILOT01",
            "703",
            "703",
            "01-703-1258",
            19194,
            19369,
            "Xanomeline High Dose",
            81,
            78,
            "65-80",
            2,
            "WHITE",
            1,
            "F",
            "Y",
            "Y",
            "Y",
            "Week 8",
            8,
            "WEEK 8",
            8,
            57,
            19250,
            "CIBICVAL",
            "CIBIC Score",
            1,
            5,
            "Y",
            "",
            "2-84",
            56,
            1,
            2,
            84,
            "DAYS",
            6001
          ],
          [
            157,
            "CDISCPILOT01",
            "703",
            "703",
            "01-703-1258",
            19194,
            19369,
            "Xanomeline High Dose",
            81,
            78,
            "65-80",
            2,
            "WHITE",
            1,
            "F",
            "Y",
            "Y",
            "Y",
            "Week 16",
            16,
            "WEEK 16",
            10,
            109,
            19302,
            "CIBICVAL",
            "CIBIC Score",
            1,
            4,
            "Y",
            "",
            "85-140",
            112,
            3,
            85,
            140,
            "DAYS",
            6002
          ],
          [
            158,
            "CDISCPILOT01",
            "703",
            "703",
            "01-703-1258",
            19194,
            19369,
            "Xanomeline High Dose",
            81,
            78,
            "65-80",
            2,
            "WHITE",
            1,
            "F",
            "Y",
            "Y",
            "Y",
            "Week 24",
            24,
            "WEEK 24",
            12,
            165,
            19358,
            "CIBICVAL",
            "CIBIC Score",
            1,
            5,
            "Y",
            "",
            ">140",
            168,
            3,
            141,
            null,
            "DAYS",
            6003
          ],
          [
            159,
            "CDISCPILOT01",
            "703",
            "703",
            "01-703-1295",
            19683,
            19832,
            "Xanomeline High Dose",
            81,
            88,
            ">80",
            3,
            "WHITE",
            1,
            "F",
            "Y",
            "Y",
            "N",
            "Week 8",
            8,
            "WEEK 8",
            8,
            56,
            19738,
            "CIBICVAL",
            "CIBIC Score",
            1,
            5,
            "Y",
            "",
            "2-84",
            56,
            0,
            2,
            84,
            "DAYS",
            6001
          ],
          [
            160,
            "CDISCPILOT01",
            "703",
            "703",
            "01-703-1295",
            19683,
            19832,
            "Xanomeline High Dose",
            81,
            88,
            ">80",
            3,
            "WHITE",
            1,
            "F",
            "Y",
            "Y",
            "N",
            "Week 16",
            16,
            "WEEK 16",
            10,
            113,
            19795,
            "CIBICVAL",
            "CIBIC Score",
            1,
            4,
            "Y",
            "",
            "85-140",
            112,
            1,
            85,
            140,
            "DAYS",
            6002
          ],
          [
            161,
            "CDISCPILOT01",
            "703",
            "703",
            "01-703-1295",
            19683,
            19832,
            "Xanomeline High Dose",
            81,
            88,
            ">80",
            3,
            "WHITE",
            1,
            "F",
            "Y",
            "Y",
            "N",
            "Week 24",
            24,
            "WEEK 16",
            10,
            113,
            19795,
            "CIBICVAL",
            "CIBIC Score",
            1,
            4,
            "Y",
            "LOCF",
            ">140",
            168,
            55,
            141,
            null,
            "DAYS",
            6002
          ],
          [
            162,
            "CDISCPILOT01",
            "703",
            "703",
            "01-703-1299",
            19248,
            19430,
            "Placebo",
            0,
            81,
            ">80",
            3,
            "WHITE",
            1,
            "F",
            "Y",
            "Y",
            "Y",
            "Week 8",
            8,
            "WEEK 8",
            8,
            57,
            19304,
            "CIBICVAL",
            "CIBIC Score",
            1,
            3,
            "Y",
            "",
            "2-84",
            56,
            1,
            2,
            84,
            "DAYS",
            6001
          ],
          [
            163,
            "CDISCPILOT01",
            "703",
            "703",
            "01-703-1299",
            19248,
            19430,
            "Placebo",
            0,
            81,
            ">80",
            3,
            "WHITE",
            1,
            "F",
            "Y",
            "Y",
            "Y",
            "Week 16",
            16,
            "WEEK 16",
            10,
            113,
            19360,
            "CIBICVAL",
            "CIBIC Score",
            1,
            4,
            "Y",
            "",
            "85-140",
            112,
            1,
            85,
            140,
            "DAYS",
            6002
          ],
          [
            164,
            "CDISCPILOT01",
            "703",
            "703",
            "01-703-1299",
            19248,
            19430,
            "Placebo",
            0,
            81,
            ">80",
            3,
            "WHITE",
            1,
            "F",
            "Y",
            "Y",
            "Y",
            "Week 24",
            24,
            "WEEK 24",
            12,
            171,
            19418,
            "CIBICVAL",
            "CIBIC Score",
            1,
            4,
            "Y",
            "",
            ">140",
            168,
            3,
            141,
            null,
            "DAYS",
            6003
          ],
          [
            165,
            "CDISCPILOT01",
            "703",
            "703",
            "01-703-1335",
            19799,
            19850,
            "Xanomeline High Dose",
            81,
            67,
            "65-80",
            2,
            "BLACK OR AFRICAN AMERICAN",
            2,
            "F",
            "Y",
            "Y",
            "N",
            "Week 8",
            8,
            "WEEK 6",
            7,
            69,
            19867,
            "CIBICVAL",
            "CIBIC Score",
            1,
            5,
            "Y",
            "",
            "2-84",
            56,
            13,
            2,
            84,
            "DAYS",
            6001
          ],
          [
            166,
            "CDISCPILOT01",
            "703",
            "703",
            "01-703-1335",
            19799,
            19850,
            "Xanomeline High Dose",
            81,
            67,
            "65-80",
            2,
            "BLACK OR AFRICAN AMERICAN",
            2,
            "F",
            "Y",
            "Y",
            "N",
            "Week 16",
            16,
            "WEEK 6",
            7,
            69,
            19867,
            "CIBICVAL",
            "CIBIC Score",
            1,
            5,
            "Y",
            "LOCF",
            "85-140",
            112,
            43,
            85,
            140,
            "DAYS",
            6001
          ],
          [
            167,
            "CDISCPILOT01",
            "703",
            "703",
            "01-703-1335",
            19799,
            19850,
            "Xanomeline High Dose",
            81,
            67,
            "65-80",
            2,
            "BLACK OR AFRICAN AMERICAN",
            2,
            "F",
            "Y",
            "Y",
            "N",
            "Week 24",
            24,
            "WEEK 6",
            7,
            69,
            19867,
            "CIBICVAL",
            "CIBIC Score",
            1,
            5,
            "Y",
            "LOCF",
            ">140",
            168,
            99,
            141,
            null,
            "DAYS",
            6001
          ],
          [
            168,
            "CDISCPILOT01",
            "703",
            "703",
            "01-703-1379",
            19623,
            19803,
            "Xanomeline Low Dose",
            54,
            81,
            ">80",
            3,
            "BLACK OR AFRICAN AMERICAN",
            2,
            "F",
            "Y",
            "Y",
            "Y",
            "Week 8",
            8,
            "WEEK 8",
            8,
            57,
            19679,
            "CIBICVAL",
            "CIBIC Score",
            1,
            4,
            "Y",
            "",
            "2-84",
            56,
            1,
            2,
            84,
            "DAYS",
            6001
          ],
          [
            169,
            "CDISCPILOT01",
            "703",
            "703",
            "01-703-1379",
            19623,
            19803,
            "Xanomeline Low Dose",
            54,
            81,
            ">80",
            3,
            "BLACK OR AFRICAN AMERICAN",
            2,
            "F",
            "Y",
            "Y",
            "Y",
            "Week 16",
            16,
            "WEEK 16",
            10,
            112,
            19734,
            "CIBICVAL",
            "CIBIC Score",
            1,
            4,
            "Y",
            "",
            "85-140",
            112,
            0,
            85,
            140,
            "DAYS",
            6002
          ],
          [
            170,
            "CDISCPILOT01",
            "703",
            "703",
            "01-703-1379",
            19623,
            19803,
            "Xanomeline Low Dose",
            54,
            81,
            ">80",
            3,
            "BLACK OR AFRICAN AMERICAN",
            2,
            "F",
            "Y",
            "Y",
            "Y",
            "Week 24",
            24,
            "WEEK 24",
            12,
            168,
            19790,
            "CIBICVAL",
            "CIBIC Score",
            1,
            5,
            "Y",
            "",
            ">140",
            168,
            0,
            141,
            null,
            "DAYS",
            6003
          ],
          [
            171,
            "CDISCPILOT01",
            "703",
            "703",
            "01-703-1439",
            19794,
            19977,
            "Xanomeline High Dose",
            81,
            76,
            "65-80",
            2,
            "WHITE",
            1,
            "F",
            "Y",
            "Y",
            "Y",
            "Week 8",
            8,
            "WEEK 8",
            8,
            55,
            19848,
            "CIBICVAL",
            "CIBIC Score",
            1,
            4,
            "Y",
            "",
            "2-84",
            56,
            1,
            2,
            84,
            "DAYS",
            6001
          ],
          [
            172,
            "CDISCPILOT01",
            "703",
            "703",
            "01-703-1439",
            19794,
            19977,
            "Xanomeline High Dose",
            81,
            76,
            "65-80",
            2,
            "WHITE",
            1,
            "F",
            "Y",
            "Y",
            "Y",
            "Week 16",
            16,
            "WEEK 16",
            10,
            111,
            19904,
            "CIBICVAL",
            "CIBIC Score",
            1,
            5,
            "Y",
            "",
            "85-140",
            112,
            1,
            85,
            140,
            "DAYS",
            6002
          ],
          [
            173,
            "CDISCPILOT01",
            "703",
            "703",
            "01-703-1439",
            19794,
            19977,
            "Xanomeline High Dose",
            81,
            76,
            "65-80",
            2,
            "WHITE",
            1,
            "F",
            "Y",
            "Y",
            "Y",
            "Week 24",
            24,
            "WEEK 24",
            12,
            170,
            19963,
            "CIBICVAL",
            "CIBIC Score",
            1,
            5,
            "Y",
            "",
            ">140",
            168,
            2,
            141,
            null,
            "DAYS",
            6003
          ],
          [
            174,
            "CDISCPILOT01",
            "704",
            "704",
            "01-704-1008",
            19371,
            19410,
            "Xanomeline High Dose",
            81,
            76,
            "65-80",
            2,
            "WHITE",
            1,
            "F",
            "Y",
            "Y",
            "N",
            "Week 8",
            8,
            "WEEK 6",
            7,
            44,
            19414,
            "CIBICVAL",
            "CIBIC Score",
            1,
            5,
            "Y",
            "",
            "2-84",
            56,
            12,
            2,
            84,
            "DAYS",
            6001
          ],
          [
            175,
            "CDISCPILOT01",
            "704",
            "704",
            "01-704-1008",
            19371,
            19410,
            "Xanomeline High Dose",
            81,
            76,
            "65-80",
            2,
            "WHITE",
            1,
            "F",
            "Y",
            "Y",
            "N",
            "Week 16",
            16,
            "WEEK 6",
            7,
            44,
            19414,
            "CIBICVAL",
            "CIBIC Score",
            1,
            5,
            "Y",
            "LOCF",
            "85-140",
            112,
            68,
            85,
            140,
            "DAYS",
            6001
          ],
          [
            176,
            "CDISCPILOT01",
            "704",
            "704",
            "01-704-1008",
            19371,
            19410,
            "Xanomeline High Dose",
            81,
            76,
            "65-80",
            2,
            "WHITE",
            1,
            "F",
            "Y",
            "Y",
            "N",
            "Week 24",
            24,
            "WEEK 6",
            7,
            44,
            19414,
            "CIBICVAL",
            "CIBIC Score",
            1,
            5,
            "Y",
            "LOCF",
            ">140",
            168,
            124,
            141,
            null,
            "DAYS",
            6001
          ],
          [
            177,
            "CDISCPILOT01",
            "704",
            "704",
            "01-704-1009",
            19597,
            19626,
            "Xanomeline Low Dose",
            54,
            83,
            ">80",
            3,
            "WHITE",
            1,
            "M",
            "Y",
            "Y",
            "N",
            "Week 8",
            8,
            "WEEK 4",
            5,
            37,
            19633,
            "CIBICVAL",
            "CIBIC Score",
            1,
            4,
            "Y",
            "",
            "2-84",
            56,
            19,
            2,
            84,
            "DAYS",
            6001
          ],
          [
            178,
            "CDISCPILOT01",
            "704",
            "704",
            "01-704-1009",
            19597,
            19626,
            "Xanomeline Low Dose",
            54,
            83,
            ">80",
            3,
            "WHITE",
            1,
            "M",
            "Y",
            "Y",
            "N",
            "Week 16",
            16,
            "WEEK 4",
            5,
            37,
            19633,
            "CIBICVAL",
            "CIBIC Score",
            1,
            4,
            "Y",
            "LOCF",
            "85-140",
            112,
            75,
            85,
            140,
            "DAYS",
            6001
          ],
          [
            179,
            "CDISCPILOT01",
            "704",
            "704",
            "01-704-1009",
            19597,
            19626,
            "Xanomeline Low Dose",
            54,
            83,
            ">80",
            3,
            "WHITE",
            1,
            "M",
            "Y",
            "Y",
            "N",
            "Week 24",
            24,
            "WEEK 4",
            5,
            37,
            19633,
            "CIBICVAL",
            "CIBIC Score",
            1,
            4,
            "Y",
            "LOCF",
            ">140",
            168,
            131,
            141,
            null,
            "DAYS",
            6001
          ],
          [
            180,
            "CDISCPILOT01",
            "704",
            "704",
            "01-704-1010",
            19775,
            19912,
            "Placebo",
            0,
            80,
            "65-80",
            2,
            "WHITE",
            1,
            "M",
            "Y",
            "Y",
            "N",
            "Week 8",
            8,
            "WEEK 8",
            8,
            63,
            19837,
            "CIBICVAL",
            "CIBIC Score",
            1,
            4,
            "Y",
            "",
            "2-84",
            56,
            7,
            2,
            84,
            "DAYS",
            6001
          ],
          [
            181,
            "CDISCPILOT01",
            "704",
            "704",
            "01-704-1010",
            19775,
            19912,
            "Placebo",
            0,
            80,
            "65-80",
            2,
            "WHITE",
            1,
            "M",
            "Y",
            "Y",
            "N",
            "Week 16",
            16,
            "WEEK 16",
            10,
            113,
            19887,
            "CIBICVAL",
            "CIBIC Score",
            1,
            3,
            "Y",
            "",
            "85-140",
            112,
            1,
            85,
            140,
            "DAYS",
            6002
          ],
          [
            182,
            "CDISCPILOT01",
            "704",
            "704",
            "01-704-1010",
            19775,
            19912,
            "Placebo",
            0,
            80,
            "65-80",
            2,
            "WHITE",
            1,
            "M",
            "Y",
            "Y",
            "N",
            "Week 16",
            16,
            "WEEK 20",
            11,
            139,
            19913,
            "CIBICVAL",
            "CIBIC Score",
            1,
            3,
            "",
            "",
            "85-140",
            112,
            27,
            85,
            140,
            "DAYS",
            6003
          ],
          [
            183,
            "CDISCPILOT01",
            "704",
            "704",
            "01-704-1010",
            19775,
            19912,
            "Placebo",
            0,
            80,
            "65-80",
            2,
            "WHITE",
            1,
            "M",
            "Y",
            "Y",
            "N",
            "Week 24",
            24,
            "WEEK 20",
            11,
            139,
            19913,
            "CIBICVAL",
            "CIBIC Score",
            1,
            3,
            "Y",
            "LOCF",
            ">140",
            168,
            29,
            141,
            null,
            "DAYS",
            6003
          ],
          [
            184,
            "CDISCPILOT01",
            "704",
            "704",
            "01-704-1017",
            19637,
            19680,
            "Xanomeline High Dose",
            81,
            77,
            "65-80",
            2,
            "WHITE",
            1,
            "M",
            "Y",
            "Y",
            "N",
            "Week 8",
            8,
            "WEEK 6",
            7,
            50,
            19686,
            "CIBICVAL",
            "CIBIC Score",
            1,
            4,
            "Y",
            "",
            "2-84",
            56,
            6,
            2,
            84,
            "DAYS",
            6001
          ],
          [
            185,
            "CDISCPILOT01",
            "704",
            "704",
            "01-704-1017",
            19637,
            19680,
            "Xanomeline High Dose",
            81,
            77,
            "65-80",
            2,
            "WHITE",
            1,
            "M",
            "Y",
            "Y",
            "N",
            "Week 16",
            16,
            "WEEK 6",
            7,
            50,
            19686,
            "CIBICVAL",
            "CIBIC Score",
            1,
            4,
            "Y",
            "LOCF",
            "85-140",
            112,
            62,
            85,
            140,
            "DAYS",
            6001
          ],
          [
            186,
            "CDISCPILOT01",
            "704",
            "704",
            "01-704-1017",
            19637,
            19680,
            "Xanomeline High Dose",
            81,
            77,
            "65-80",
            2,
            "WHITE",
            1,
            "M",
            "Y",
            "Y",
            "N",
            "Week 24",
            24,
            "WEEK 6",
            7,
            50,
            19686,
            "CIBICVAL",
            "CIBIC Score",
            1,
            4,
            "Y",
            "LOCF",
            ">140",
            168,
            118,
            141,
            null,
            "DAYS",
            6001
          ],
          [
            187,
            "CDISCPILOT01",
            "704",
            "704",
            "01-704-1025",
            19628,
            19655,
            "Xanomeline Low Dose",
            54,
            81,
            ">80",
            3,
            "WHITE",
            1,
            "F",
            "Y",
            "Y",
            "N",
            "Week 8",
            8,
            "AMBUL ECG REMOVAL",
            6,
            64,
            19691,
            "CIBICVAL",
            "CIBIC Score",
            1,
            4,
            "Y",
            "",
            "2-84",
            56,
            8,
            2,
            84,
            "DAYS",
            6001
          ],
          [
            188,
            "CDISCPILOT01",
            "704",
            "704",
            "01-704-1025",
            19628,
            19655,
            "Xanomeline Low Dose",
            54,
            81,
            ">80",
            3,
            "WHITE",
            1,
            "F",
            "Y",
            "Y",
            "N",
            "Week 16",
            16,
            "AMBUL ECG REMOVAL",
            6,
            64,
            19691,
            "CIBICVAL",
            "CIBIC Score",
            1,
            4,
            "Y",
            "LOCF",
            "85-140",
            112,
            48,
            85,
            140,
            "DAYS",
            6001
          ],
          [
            189,
            "CDISCPILOT01",
            "704",
            "704",
            "01-704-1025",
            19628,
            19655,
            "Xanomeline Low Dose",
            54,
            81,
            ">80",
            3,
            "WHITE",
            1,
            "F",
            "Y",
            "Y",
            "N",
            "Week 24",
            24,
            "AMBUL ECG REMOVAL",
            6,
            64,
            19691,
            "CIBICVAL",
            "CIBIC Score",
            1,
            4,
            "Y",
            "LOCF",
            ">140",
            168,
            104,
            141,
            null,
            "DAYS",
            6001
          ],
          [
            190,
            "CDISCPILOT01",
            "704",
            "704",
            "01-704-1065",
            19655,
            19714,
            "Xanomeline High Dose",
            81,
            75,
            "65-80",
            2,
            "WHITE",
            1,
            "M",
            "Y",
            "Y",
            "N",
            "Week 8",
            8,
            "WEEK 8",
            8,
            58,
            19712,
            "CIBICVAL",
            "CIBIC Score",
            1,
            4,
            "Y",
            "",
            "2-84",
            56,
            2,
            2,
            84,
            "DAYS",
            6001
          ],
          [
            191,
            "CDISCPILOT01",
            "704",
            "704",
            "01-704-1065",
            19655,
            19714,
            "Xanomeline High Dose",
            81,
            75,
            "65-80",
            2,
            "WHITE",
            1,
            "M",
            "Y",
            "Y",
            "N",
            "Week 8",
            8,
            "WEEK 12",
            9,
            62,
            19716,
            "CIBICVAL",
            "CIBIC Score",
            1,
            5,
            "",
            "",
            "2-84",
            56,
            6,
            2,
            84,
            "DAYS",
            6002
          ],
          [
            192,
            "CDISCPILOT01",
            "704",
            "704",
            "01-704-1065",
            19655,
            19714,
            "Xanomeline High Dose",
            81,
            75,
            "65-80",
            2,
            "WHITE",
            1,
            "M",
            "Y",
            "Y",
            "N",
            "Week 16",
            16,
            "WEEK 12",
            9,
            62,
            19716,
            "CIBICVAL",
            "CIBIC Score",
            1,
            4,
            "Y",
            "LOCF",
            "85-140",
            112,
            50,
            85,
            140,
            "DAYS",
            6002
          ],
          [
            193,
            "CDISCPILOT01",
            "704",
            "704",
            "01-704-1065",
            19655,
            19714,
            "Xanomeline High Dose",
            81,
            75,
            "65-80",
            2,
            "WHITE",
            1,
            "M",
            "Y",
            "Y",
            "N",
            "Week 24",
            24,
            "WEEK 12",
            9,
            62,
            19716,
            "CIBICVAL",
            "CIBIC Score",
            1,
            4,
            "Y",
            "LOCF",
            ">140",
            168,
            106,
            141,
            null,
            "DAYS",
            6002
          ],
          [
            194,
            "CDISCPILOT01",
            "704",
            "704",
            "01-704-1074",
            19745,
            19802,
            "Xanomeline High Dose",
            81,
            80,
            "65-80",
            2,
            "WHITE",
            1,
            "F",
            "Y",
            "Y",
            "N",
            "Week 8",
            8,
            "WEEK 8",
            8,
            69,
            19813,
            "CIBICVAL",
            "CIBIC Score",
            1,
            4,
            "Y",
            "",
            "2-84",
            56,
            13,
            2,
            84,
            "DAYS",
            6001
          ],
          [
            195,
            "CDISCPILOT01",
            "704",
            "704",
            "01-704-1074",
            19745,
            19802,
            "Xanomeline High Dose",
            81,
            80,
            "65-80",
            2,
            "WHITE",
            1,
            "F",
            "Y",
            "Y",
            "N",
            "Week 16",
            16,
            "WEEK 8",
            8,
            69,
            19813,
            "CIBICVAL",
            "CIBIC Score",
            1,
            4,
            "Y",
            "LOCF",
            "85-140",
            112,
            43,
            85,
            140,
            "DAYS",
            6001
          ],
          [
            196,
            "CDISCPILOT01",
            "704",
            "704",
            "01-704-1074",
            19745,
            19802,
            "Xanomeline High Dose",
            81,
            80,
            "65-80",
            2,
            "WHITE",
            1,
            "F",
            "Y",
            "Y",
            "N",
            "Week 24",
            24,
            "WEEK 8",
            8,
            69,
            19813,
            "CIBICVAL",
            "CIBIC Score",
            1,
            4,
            "Y",
            "LOCF",
            ">140",
            168,
            99,
            141,
            null,
            "DAYS",
            6001
          ],
          [
            197,
            "CDISCPILOT01",
            "704",
            "704",
            "01-704-1093",
            19432,
            19526,
            "Xanomeline High Dose",
            81,
            79,
            "65-80",
            2,
            "WHITE",
            1,
            "M",
            "Y",
            "Y",
            "N",
            "Week 8",
            8,
            "WEEK 8",
            8,
            58,
            19489,
            "CIBICVAL",
            "CIBIC Score",
            1,
            4,
            "Y",
            "",
            "2-84",
            56,
            2,
            2,
            84,
            "DAYS",
            6001
          ],
          [
            198,
            "CDISCPILOT01",
            "704",
            "704",
            "01-704-1093",
            19432,
            19526,
            "Xanomeline High Dose",
            81,
            79,
            "65-80",
            2,
            "WHITE",
            1,
            "M",
            "Y",
            "Y",
            "N",
            "Week 16",
            16,
            "WEEK 16",
            10,
            98,
            19529,
            "CIBICVAL",
            "CIBIC Score",
            1,
            4,
            "Y",
            "",
            "85-140",
            112,
            14,
            85,
            140,
            "DAYS",
            6002
          ],
          [
            199,
            "CDISCPILOT01",
            "704",
            "704",
            "01-704-1093",
            19432,
            19526,
            "Xanomeline High Dose",
            81,
            79,
            "65-80",
            2,
            "WHITE",
            1,
            "M",
            "Y",
            "Y",
            "N",
            "Week 24",
            24,
            "RETRIEVAL",
            201,
            286,
            19717,
            "CIBICVAL",
            "CIBIC Score",
            1,
            6,
            "Y",
            "",
            ">140",
            168,
            118,
            141,
            null,
            "DAYS",
            6003
          ],
          [
            200,
            "CDISCPILOT01",
            "704",
            "704",
            "01-704-1114",
            19381,
            19546,
            "Xanomeline Low Dose",
            54,
            77,
            "65-80",
            2,
            "WHITE",
            1,
            "M",
            "Y",
            "Y",
            "Y",
            "Week 8",
            8,
            "WEEK 8",
            8,
            63,
            19443,
            "CIBICVAL",
            "CIBIC Score",
            1,
            4,
            "Y",
            "",
            "2-84",
            56,
            7,
            2,
            84,
            "DAYS",
            6001
          ],
          [
            201,
            "CDISCPILOT01",
            "704",
            "704",
            "01-704-1114",
            19381,
            19546,
            "Xanomeline Low Dose",
            54,
            77,
            "65-80",
            2,
            "WHITE",
            1,
            "M",
            "Y",
            "Y",
            "Y",
            "Week 16",
            16,
            "WEEK 16",
            10,
            112,
            19492,
            "CIBICVAL",
            "CIBIC Score",
            1,
            4,
            "Y",
            "",
            "85-140",
            112,
            0,
            85,
            140,
            "DAYS",
            6002
          ],
          [
            202,
            "CDISCPILOT01",
            "704",
            "704",
            "01-704-1114",
            19381,
            19546,
            "Xanomeline Low Dose",
            54,
            77,
            "65-80",
            2,
            "WHITE",
            1,
            "M",
            "Y",
            "Y",
            "Y",
            "Week 24",
            24,
            "WEEK 24",
            12,
            167,
            19547,
            "CIBICVAL",
            "CIBIC Score",
            1,
            4,
            "Y",
            "",
            ">140",
            168,
            1,
            141,
            null,
            "DAYS",
            6003
          ],
          [
            203,
            "CDISCPILOT01",
            "704",
            "704",
            "01-704-1120",
            19694,
            19755,
            "Xanomeline Low Dose",
            54,
            71,
            "65-80",
            2,
            "WHITE",
            1,
            "F",
            "Y",
            "Y",
            "N",
            "Week 8",
            8,
            "WEEK 8",
            8,
            57,
            19750,
            "CIBICVAL",
            "CIBIC Score",
            1,
            4,
            "Y",
            "",
            "2-84",
            56,
            1,
            2,
            84,
            "DAYS",
            6001
          ],
          [
            204,
            "CDISCPILOT01",
            "704",
            "704",
            "01-704-1120",
            19694,
            19755,
            "Xanomeline Low Dose",
            54,
            71,
            "65-80",
            2,
            "WHITE",
            1,
            "F",
            "Y",
            "Y",
            "N",
            "Week 8",
            8,
            "WEEK 12",
            9,
            64,
            19757,
            "CIBICVAL",
            "CIBIC Score",
            1,
            4,
            "",
            "",
            "2-84",
            56,
            8,
            2,
            84,
            "DAYS",
            6002
          ],
          [
            205,
            "CDISCPILOT01",
            "704",
            "704",
            "01-704-1120",
            19694,
            19755,
            "Xanomeline Low Dose",
            54,
            71,
            "65-80",
            2,
            "WHITE",
            1,
            "F",
            "Y",
            "Y",
            "N",
            "Week 16",
            16,
            "WEEK 12",
            9,
            64,
            19757,
            "CIBICVAL",
            "CIBIC Score",
            1,
            4,
            "Y",
            "LOCF",
            "85-140",
            112,
            48,
            85,
            140,
            "DAYS",
            6002
          ],
          [
            206,
            "CDISCPILOT01",
            "704",
            "704",
            "01-704-1120",
            19694,
            19755,
            "Xanomeline Low Dose",
            54,
            71,
            "65-80",
            2,
            "WHITE",
            1,
            "F",
            "Y",
            "Y",
            "N",
            "Week 24",
            24,
            "WEEK 12",
            9,
            64,
            19757,
            "CIBICVAL",
            "CIBIC Score",
            1,
            4,
            "Y",
            "LOCF",
            ">140",
            168,
            104,
            141,
            null,
            "DAYS",
            6002
          ],
          [
            207,
            "CDISCPILOT01",
            "704",
            "704",
            "01-704-1127",
            19633,
            19813,
            "Placebo",
            0,
            84,
            ">80",
            3,
            "WHITE",
            1,
            "F",
            "Y",
            "Y",
            "Y",
            "Week 8",
            8,
            "WEEK 8",
            8,
            56,
            19688,
            "CIBICVAL",
            "CIBIC Score",
            1,
            4,
            "Y",
            "",
            "2-84",
            56,
            0,
            2,
            84,
            "DAYS",
            6001
          ],
          [
            208,
            "CDISCPILOT01",
            "704",
            "704",
            "01-704-1127",
            19633,
            19813,
            "Placebo",
            0,
            84,
            ">80",
            3,
            "WHITE",
            1,
            "F",
            "Y",
            "Y",
            "Y",
            "Week 16",
            16,
            "WEEK 16",
            10,
            112,
            19744,
            "CIBICVAL",
            "CIBIC Score",
            1,
            5,
            "Y",
            "",
            "85-140",
            112,
            0,
            85,
            140,
            "DAYS",
            6002
          ],
          [
            209,
            "CDISCPILOT01",
            "704",
            "704",
            "01-704-1127",
            19633,
            19813,
            "Placebo",
            0,
            84,
            ">80",
            3,
            "WHITE",
            1,
            "F",
            "Y",
            "Y",
            "Y",
            "Week 24",
            24,
            "WEEK 24",
            12,
            167,
            19799,
            "CIBICVAL",
            "CIBIC Score",
            1,
            5,
            "Y",
            "",
            ">140",
            168,
            1,
            141,
            null,
            "DAYS",
            6003
          ],
          [
            210,
            "CDISCPILOT01",
            "704",
            "704",
            "01-704-1135",
            19662,
            19859,
            "Xanomeline Low Dose",
            54,
            74,
            "65-80",
            2,
            "WHITE",
            1,
            "F",
            "Y",
            "Y",
            "Y",
            "Week 8",
            8,
            "WEEK 8",
            8,
            56,
            19717,
            "CIBICVAL",
            "CIBIC Score",
            1,
            4,
            "Y",
            "",
            "2-84",
            56,
            0,
            2,
            84,
            "DAYS",
            6001
          ],
          [
            211,
            "CDISCPILOT01",
            "704",
            "704",
            "01-704-1135",
            19662,
            19859,
            "Xanomeline Low Dose",
            54,
            74,
            "65-80",
            2,
            "WHITE",
            1,
            "F",
            "Y",
            "Y",
            "Y",
            "Week 16",
            16,
            "WEEK 16",
            10,
            112,
            19773,
            "CIBICVAL",
            "CIBIC Score",
            1,
            4,
            "Y",
            "",
            "85-140",
            112,
            0,
            85,
            140,
            "DAYS",
            6002
          ],
          [
            212,
            "CDISCPILOT01",
            "704",
            "704",
            "01-704-1135",
            19662,
            19859,
            "Xanomeline Low Dose",
            54,
            74,
            "65-80",
            2,
            "WHITE",
            1,
            "F",
            "Y",
            "Y",
            "Y",
            "Week 24",
            24,
            "WEEK 24",
            12,
            183,
            19844,
            "CIBICVAL",
            "CIBIC Score",
            1,
            6,
            "Y",
            "",
            ">140",
            168,
            15,
            141,
            null,
            "DAYS",
            6003
          ],
          [
            213,
            "CDISCPILOT01",
            "704",
            "704",
            "01-704-1164",
            19255,
            19452,
            "Placebo",
            0,
            67,
            "65-80",
            2,
            "WHITE",
            1,
            "F",
            "Y",
            "Y",
            "Y",
            "Week 8",
            8,
            "WEEK 8",
            8,
            58,
            19312,
            "CIBICVAL",
            "CIBIC Score",
            1,
            4,
            "Y",
            "",
            "2-84",
            56,
            2,
            2,
            84,
            "DAYS",
            6001
          ],
          [
            214,
            "CDISCPILOT01",
            "704",
            "704",
            "01-704-1164",
            19255,
            19452,
            "Placebo",
            0,
            67,
            "65-80",
            2,
            "WHITE",
            1,
            "F",
            "Y",
            "Y",
            "Y",
            "Week 16",
            16,
            "WEEK 16",
            10,
            118,
            19372,
            "CIBICVAL",
            "CIBIC Score",
            1,
            5,
            "Y",
            "",
            "85-140",
            112,
            6,
            85,
            140,
            "DAYS",
            6002
          ],
          [
            215,
            "CDISCPILOT01",
            "704",
            "704",
            "01-704-1164",
            19255,
            19452,
            "Placebo",
            0,
            67,
            "65-80",
            2,
            "WHITE",
            1,
            "F",
            "Y",
            "Y",
            "Y",
            "Week 24",
            24,
            "WEEK 24",
            12,
            180,
            19434,
            "CIBICVAL",
            "CIBIC Score",
            1,
            5,
            "Y",
            "",
            ">140",
            168,
            12,
            141,
            null,
            "DAYS",
            6003
          ],
          [
            216,
            "CDISCPILOT01",
            "704",
            "704",
            "01-704-1218",
            19316,
            19505,
            "Xanomeline Low Dose",
            54,
            81,
            ">80",
            3,
            "WHITE",
            1,
            "F",
            "Y",
            "Y",
            "Y",
            "Week 8",
            8,
            "WEEK 8",
            8,
            57,
            19372,
            "CIBICVAL",
            "CIBIC Score",
            1,
            5,
            "Y",
            "",
            "2-84",
            56,
            1,
            2,
            84,
            "DAYS",
            6001
          ],
          [
            217,
            "CDISCPILOT01",
            "704",
            "704",
            "01-704-1218",
            19316,
            19505,
            "Xanomeline Low Dose",
            54,
            81,
            ">80",
            3,
            "WHITE",
            1,
            "F",
            "Y",
            "Y",
            "Y",
            "Week 16",
            16,
            "WEEK 16",
            10,
            120,
            19435,
            "CIBICVAL",
            "CIBIC Score",
            1,
            5,
            "Y",
            "",
            "85-140",
            112,
            8,
            85,
            140,
            "DAYS",
            6002
          ],
          [
            218,
            "CDISCPILOT01",
            "704",
            "704",
            "01-704-1218",
            19316,
            19505,
            "Xanomeline Low Dose",
            54,
            81,
            ">80",
            3,
            "WHITE",
            1,
            "F",
            "Y",
            "Y",
            "Y",
            "Week 24",
            24,
            "WEEK 24",
            12,
            176,
            19491,
            "CIBICVAL",
            "CIBIC Score",
            1,
            5,
            "Y",
            "",
            ">140",
            168,
            8,
            141,
            null,
            "DAYS",
            6003
          ],
          [
            219,
            "CDISCPILOT01",
            "704",
            "704",
            "01-704-1233",
            19438,
            19553,
            "Placebo",
            0,
            87,
            ">80",
            3,
            "WHITE",
            1,
            "F",
            "Y",
            "Y",
            "N",
            "Week 16",
            16,
            "WEEK 16",
            10,
            113,
            19550,
            "CIBICVAL",
            "CIBIC Score",
            1,
            5,
            "Y",
            "",
            "85-140",
            112,
            1,
            85,
            140,
            "DAYS",
            6001
          ],
          [
            220,
            "CDISCPILOT01",
            "704",
            "704",
            "01-704-1233",
            19438,
            19553,
            "Placebo",
            0,
            87,
            ">80",
            3,
            "WHITE",
            1,
            "F",
            "Y",
            "Y",
            "N",
            "Week 24",
            24,
            "WEEK 16",
            10,
            113,
            19550,
            "CIBICVAL",
            "CIBIC Score",
            1,
            5,
            "Y",
            "LOCF",
            ">140",
            168,
            55,
            141,
            null,
            "DAYS",
            6001
          ],
          [
            221,
            "CDISCPILOT01",
            "704",
            "704",
            "01-704-1241",
            19595,
            19640,
            "Xanomeline High Dose",
            81,
            86,
            ">80",
            3,
            "WHITE",
            1,
            "M",
            "Y",
            "Y",
            "N",
            "Week 8",
            8,
            "WEEK 8",
            8,
            68,
            19662,
            "CIBICVAL",
            "CIBIC Score",
            1,
            4,
            "Y",
            "",
            "2-84",
            56,
            12,
            2,
            84,
            "DAYS",
            6001
          ],
          [
            222,
            "CDISCPILOT01",
            "704",
            "704",
            "01-704-1241",
            19595,
            19640,
            "Xanomeline High Dose",
            81,
            86,
            ">80",
            3,
            "WHITE",
            1,
            "M",
            "Y",
            "Y",
            "N",
            "Week 16",
            16,
            "WEEK 8",
            8,
            68,
            19662,
            "CIBICVAL",
            "CIBIC Score",
            1,
            4,
            "Y",
            "LOCF",
            "85-140",
            112,
            44,
            85,
            140,
            "DAYS",
            6001
          ],
          [
            223,
            "CDISCPILOT01",
            "704",
            "704",
            "01-704-1241",
            19595,
            19640,
            "Xanomeline High Dose",
            81,
            86,
            ">80",
            3,
            "WHITE",
            1,
            "M",
            "Y",
            "Y",
            "N",
            "Week 24",
            24,
            "WEEK 8",
            8,
            68,
            19662,
            "CIBICVAL",
            "CIBIC Score",
            1,
            4,
            "Y",
            "LOCF",
            ">140",
            168,
            100,
            141,
            null,
            "DAYS",
            6001
          ],
          [
            224,
            "CDISCPILOT01",
            "704",
            "704",
            "01-704-1260",
            19235,
            19301,
            "Placebo",
            0,
            71,
            "65-80",
            2,
            "WHITE",
            1,
            "F",
            "Y",
            "Y",
            "N",
            "Week 8",
            8,
            "WEEK 8",
            8,
            56,
            19290,
            "CIBICVAL",
            "CIBIC Score",
            1,
            4,
            "Y",
            "",
            "2-84",
            56,
            0,
            2,
            84,
            "DAYS",
            6001
          ],
          [
            225,
            "CDISCPILOT01",
            "704",
            "704",
            "01-704-1260",
            19235,
            19301,
            "Placebo",
            0,
            71,
            "65-80",
            2,
            "WHITE",
            1,
            "F",
            "Y",
            "Y",
            "N",
            "Week 16",
            16,
            "WEEK 8",
            8,
            56,
            19290,
            "CIBICVAL",
            "CIBIC Score",
            1,
            4,
            "Y",
            "LOCF",
            "85-140",
            112,
            56,
            85,
            140,
            "DAYS",
            6001
          ],
          [
            226,
            "CDISCPILOT01",
            "704",
            "704",
            "01-704-1260",
            19235,
            19301,
            "Placebo",
            0,
            71,
            "65-80",
            2,
            "WHITE",
            1,
            "F",
            "Y",
            "Y",
            "N",
            "Week 24",
            24,
            "WEEK 8",
            8,
            56,
            19290,
            "CIBICVAL",
            "CIBIC Score",
            1,
            4,
            "Y",
            "LOCF",
            ">140",
            168,
            112,
            141,
            null,
            "DAYS",
            6001
          ],
          [
            227,
            "CDISCPILOT01",
            "704",
            "704",
            "01-704-1266",
            19644,
            19698,
            "Xanomeline High Dose",
            81,
            82,
            ">80",
            3,
            "WHITE",
            1,
            "M",
            "Y",
            "Y",
            "N",
            "Week 8",
            8,
            "WEEK 8",
            8,
            55,
            19698,
            "CIBICVAL",
            "CIBIC Score",
            1,
            4,
            "Y",
            "",
            "2-84",
            56,
            1,
            2,
            84,
            "DAYS",
            6001
          ],
          [
            228,
            "CDISCPILOT01",
            "704",
            "704",
            "01-704-1266",
            19644,
            19698,
            "Xanomeline High Dose",
            81,
            82,
            ">80",
            3,
            "WHITE",
            1,
            "M",
            "Y",
            "Y",
            "N",
            "Week 16",
            16,
            "WEEK 8",
            8,
            55,
            19698,
            "CIBICVAL",
            "CIBIC Score",
            1,
            4,
            "Y",
            "LOCF",
            "85-140",
            112,
            57,
            85,
            140,
            "DAYS",
            6001
          ],
          [
            229,
            "CDISCPILOT01",
            "704",
            "704",
            "01-704-1266",
            19644,
            19698,
            "Xanomeline High Dose",
            81,
            82,
            ">80",
            3,
            "WHITE",
            1,
            "M",
            "Y",
            "Y",
            "N",
            "Week 24",
            24,
            "WEEK 8",
            8,
            55,
            19698,
            "CIBICVAL",
            "CIBIC Score",
            1,
            4,
            "Y",
            "LOCF",
            ">140",
            168,
            113,
            141,
            null,
            "DAYS",
            6001
          ],
          [
            230,
            "CDISCPILOT01",
            "704",
            "704",
            "01-704-1325",
            19836,
            19908,
            "Xanomeline Low Dose",
            54,
            81,
            ">80",
            3,
            "WHITE",
            1,
            "M",
            "Y",
            "Y",
            "N",
            "Week 8",
            8,
            "WEEK 8",
            8,
            57,
            19892,
            "CIBICVAL",
            "CIBIC Score",
            1,
            4,
            "Y",
            "",
            "2-84",
            56,
            1,
            2,
            84,
            "DAYS",
            6001
          ],
          [
            231,
            "CDISCPILOT01",
            "704",
            "704",
            "01-704-1325",
            19836,
            19908,
            "Xanomeline Low Dose",
            54,
            81,
            ">80",
            3,
            "WHITE",
            1,
            "M",
            "Y",
            "Y",
            "N",
            "Week 16",
            16,
            "WEEK 16",
            10,
            106,
            19941,
            "CIBICVAL",
            "CIBIC Score",
            1,
            4,
            "Y",
            "",
            "85-140",
            112,
            6,
            85,
            140,
            "DAYS",
            6002
          ],
          [
            232,
            "CDISCPILOT01",
            "704",
            "704",
            "01-704-1325",
            19836,
            19908,
            "Xanomeline Low Dose",
            54,
            81,
            ">80",
            3,
            "WHITE",
            1,
            "M",
            "Y",
            "Y",
            "N",
            "Week 24",
            24,
            "WEEK 16",
            10,
            106,
            19941,
            "CIBICVAL",
            "CIBIC Score",
            1,
            4,
            "Y",
            "LOCF",
            ">140",
            168,
            62,
            141,
            null,
            "DAYS",
            6002
          ],
          [
            233,
            "CDISCPILOT01",
            "704",
            "704",
            "01-704-1332",
            19701,
            19768,
            "Xanomeline High Dose",
            81,
            80,
            "65-80",
            2,
            "WHITE",
            1,
            "M",
            "Y",
            "Y",
            "N",
            "Week 8",
            8,
            "WEEK 8",
            8,
            57,
            19757,
            "CIBICVAL",
            "CIBIC Score",
            1,
            4,
            "Y",
            "",
            "2-84",
            56,
            1,
            2,
            84,
            "DAYS",
            6001
          ],
          [
            234,
            "CDISCPILOT01",
            "704",
            "704",
            "01-704-1332",
            19701,
            19768,
            "Xanomeline High Dose",
            81,
            80,
            "65-80",
            2,
            "WHITE",
            1,
            "M",
            "Y",
            "Y",
            "N",
            "Week 16",
            16,
            "WEEK 8",
            8,
            57,
            19757,
            "CIBICVAL",
            "CIBIC Score",
            1,
            4,
            "Y",
            "LOCF",
            "85-140",
            112,
            55,
            85,
            140,
            "DAYS",
            6001
          ],
          [
            235,
            "CDISCPILOT01",
            "704",
            "704",
            "01-704-1332",
            19701,
            19768,
            "Xanomeline High Dose",
            81,
            80,
            "65-80",
            2,
            "WHITE",
            1,
            "M",
            "Y",
            "Y",
            "N",
            "Week 24",
            24,
            "WEEK 8",
            8,
            57,
            19757,
            "CIBICVAL",
            "CIBIC Score",
            1,
            4,
            "Y",
            "LOCF",
            ">140",
            168,
            111,
            141,
            null,
            "DAYS",
            6001
          ],
          [
            236,
            "CDISCPILOT01",
            "704",
            "704",
            "01-704-1351",
            19643,
            19831,
            "Placebo",
            0,
            70,
            "65-80",
            2,
            "WHITE",
            1,
            "M",
            "Y",
            "Y",
            "Y",
            "Week 8",
            8,
            "WEEK 8",
            8,
            52,
            19694,
            "CIBICVAL",
            "CIBIC Score",
            1,
            4,
            "Y",
            "",
            "2-84",
            56,
            4,
            2,
            84,
            "DAYS",
            6001
          ],
          [
            237,
            "CDISCPILOT01",
            "704",
            "704",
            "01-704-1351",
            19643,
            19831,
            "Placebo",
            0,
            70,
            "65-80",
            2,
            "WHITE",
            1,
            "M",
            "Y",
            "Y",
            "Y",
            "Week 16",
            16,
            "WEEK 16",
            10,
            107,
            19749,
            "CIBICVAL",
            "CIBIC Score",
            1,
            4,
            "Y",
            "",
            "85-140",
            112,
            5,
            85,
            140,
            "DAYS",
            6002
          ],
          [
            238,
            "CDISCPILOT01",
            "704",
            "704",
            "01-704-1351",
            19643,
            19831,
            "Placebo",
            0,
            70,
            "65-80",
            2,
            "WHITE",
            1,
            "M",
            "Y",
            "Y",
            "Y",
            "Week 24",
            24,
            "WEEK 24",
            12,
            175,
            19817,
            "CIBICVAL",
            "CIBIC Score",
            1,
            5,
            "Y",
            "",
            ">140",
            168,
            7,
            141,
            null,
            "DAYS",
            6003
          ],
          [
            239,
            "CDISCPILOT01",
            "704",
            "704",
            "01-704-1388",
            19334,
            19520,
            "Placebo",
            0,
            81,
            ">80",
            3,
            "WHITE",
            1,
            "M",
            "Y",
            "Y",
            "Y",
            "Week 8",
            8,
            "WEEK 8",
            8,
            55,
            19388,
            "CIBICVAL",
            "CIBIC Score",
            1,
            4,
            "Y",
            "",
            "2-84",
            56,
            1,
            2,
            84,
            "DAYS",
            6001
          ],
          [
            240,
            "CDISCPILOT01",
            "704",
            "704",
            "01-704-1388",
            19334,
            19520,
            "Placebo",
            0,
            81,
            ">80",
            3,
            "WHITE",
            1,
            "M",
            "Y",
            "Y",
            "Y",
            "Week 16",
            16,
            "WEEK 16",
            10,
            111,
            19444,
            "CIBICVAL",
            "CIBIC Score",
            1,
            4,
            "Y",
            "",
            "85-140",
            112,
            1,
            85,
            140,
            "DAYS",
            6002
          ],
          [
            241,
            "CDISCPILOT01",
            "704",
            "704",
            "01-704-1388",
            19334,
            19520,
            "Placebo",
            0,
            81,
            ">80",
            3,
            "WHITE",
            1,
            "M",
            "Y",
            "Y",
            "Y",
            "Week 24",
            24,
            "WEEK 24",
            12,
            168,
            19501,
            "CIBICVAL",
            "CIBIC Score",
            1,
            4,
            "Y",
            "",
            ">140",
            168,
            0,
            141,
            null,
            "DAYS",
            6003
          ],
          [
            242,
            "CDISCPILOT01",
            "704",
            "704",
            "01-704-1435",
            19314,
            19367,
            "Placebo",
            0,
            74,
            "65-80",
            2,
            "WHITE",
            1,
            "M",
            "Y",
            "Y",
            "N",
            "Week 8",
            8,
            "WEEK 8",
            8,
            57,
            19370,
            "CIBICVAL",
            "CIBIC Score",
            1,
            4,
            "Y",
            "",
            "2-84",
            56,
            1,
            2,
            84,
            "DAYS",
            6001
          ],
          [
            243,
            "CDISCPILOT01",
            "704",
            "704",
            "01-704-1435",
            19314,
            19367,
            "Placebo",
            0,
            74,
            "65-80",
            2,
            "WHITE",
            1,
            "M",
            "Y",
            "Y",
            "N",
            "Week 16",
            16,
            "WEEK 8",
            8,
            57,
            19370,
            "CIBICVAL",
            "CIBIC Score",
            1,
            4,
            "Y",
            "LOCF",
            "85-140",
            112,
            55,
            85,
            140,
            "DAYS",
            6001
          ],
          [
            244,
            "CDISCPILOT01",
            "704",
            "704",
            "01-704-1435",
            19314,
            19367,
            "Placebo",
            0,
            74,
            "65-80",
            2,
            "WHITE",
            1,
            "M",
            "Y",
            "Y",
            "N",
            "Week 24",
            24,
            "WEEK 8",
            8,
            57,
            19370,
            "CIBICVAL",
            "CIBIC Score",
            1,
            4,
            "Y",
            "LOCF",
            ">140",
            168,
            111,
            141,
            null,
            "DAYS",
            6001
          ],
          [
            245,
            "CDISCPILOT01",
            "704",
            "704",
            "01-704-1445",
            19854,
            20028,
            "Placebo",
            0,
            75,
            "65-80",
            2,
            "WHITE",
            1,
            "M",
            "Y",
            "Y",
            "Y",
            "Week 8",
            8,
            "WEEK 8",
            8,
            60,
            19913,
            "CIBICVAL",
            "CIBIC Score",
            1,
            6,
            "Y",
            "",
            "2-84",
            56,
            4,
            2,
            84,
            "DAYS",
            6001
          ],
          [
            246,
            "CDISCPILOT01",
            "704",
            "704",
            "01-704-1445",
            19854,
            20028,
            "Placebo",
            0,
            75,
            "65-80",
            2,
            "WHITE",
            1,
            "M",
            "Y",
            "Y",
            "Y",
            "Week 16",
            16,
            "WEEK 16",
            10,
            116,
            19969,
            "CIBICVAL",
            "CIBIC Score",
            1,
            5,
            "Y",
            "",
            "85-140",
            112,
            4,
            85,
            140,
            "DAYS",
            6002
          ],
          [
            247,
            "CDISCPILOT01",
            "704",
            "704",
            "01-704-1445",
            19854,
            20028,
            "Placebo",
            0,
            75,
            "65-80",
            2,
            "WHITE",
            1,
            "M",
            "Y",
            "Y",
            "Y",
            "Week 24",
            24,
            "WEEK 16",
            10,
            116,
            19969,
            "CIBICVAL",
            "CIBIC Score",
            1,
            5,
            "Y",
            "LOCF",
            ">140",
            168,
            52,
            141,
            null,
            "DAYS",
            6002
          ],
          [
            248,
            "CDISCPILOT01",
            "705",
            "705",
            "01-705-1031",
            19689,
            19854,
            "Xanomeline Low Dose",
            54,
            56,
            "<65",
            1,
            "WHITE",
            1,
            "F",
            "Y",
            "Y",
            "Y",
            "Week 8",
            8,
            "WEEK 8",
            8,
            58,
            19746,
            "CIBICVAL",
            "CIBIC Score",
            1,
            4,
            "Y",
            "",
            "2-84",
            56,
            2,
            2,
            84,
            "DAYS",
            6001
          ],
          [
            249,
            "CDISCPILOT01",
            "705",
            "705",
            "01-705-1031",
            19689,
            19854,
            "Xanomeline Low Dose",
            54,
            56,
            "<65",
            1,
            "WHITE",
            1,
            "F",
            "Y",
            "Y",
            "Y",
            "Week 16",
            16,
            "WEEK 16",
            10,
            114,
            19802,
            "CIBICVAL",
            "CIBIC Score",
            1,
            4,
            "Y",
            "",
            "85-140",
            112,
            2,
            85,
            140,
            "DAYS",
            6002
          ],
          [
            250,
            "CDISCPILOT01",
            "705",
            "705",
            "01-705-1031",
            19689,
            19854,
            "Xanomeline Low Dose",
            54,
            56,
            "<65",
            1,
            "WHITE",
            1,
            "F",
            "Y",
            "Y",
            "Y",
            "Week 24",
            24,
            "WEEK 24",
            12,
            166,
            19854,
            "CIBICVAL",
            "CIBIC Score",
            1,
            4,
            "Y",
            "",
            ">140",
            168,
            2,
            141,
            null,
            "DAYS",
            6003
          ],
          [
            251,
            "CDISCPILOT01",
            "705",
            "705",
            "01-705-1059",
            19575,
            19697,
            "Placebo",
            0,
            66,
            "65-80",
            2,
            "WHITE",
            1,
            "F",
            "Y",
            "Y",
            "N",
            "Week 8",
            8,
            "WEEK 8",
            8,
            60,
            19634,
            "CIBICVAL",
            "CIBIC Score",
            1,
            3,
            "Y",
            "",
            "2-84",
            56,
            4,
            2,
            84,
            "DAYS",
            6001
          ],
          [
            252,
            "CDISCPILOT01",
            "705",
            "705",
            "01-705-1059",
            19575,
            19697,
            "Placebo",
            0,
            66,
            "65-80",
            2,
            "WHITE",
            1,
            "F",
            "Y",
            "Y",
            "N",
            "Week 16",
            16,
            "WEEK 16",
            10,
            123,
            19697,
            "CIBICVAL",
            "CIBIC Score",
            1,
            3,
            "Y",
            "",
            "85-140",
            112,
            11,
            85,
            140,
            "DAYS",
            6002
          ],
          [
            253,
            "CDISCPILOT01",
            "705",
            "705",
            "01-705-1059",
            19575,
            19697,
            "Placebo",
            0,
            66,
            "65-80",
            2,
            "WHITE",
            1,
            "F",
            "Y",
            "Y",
            "N",
            "Week 24",
            24,
            "RETRIEVAL",
            201,
            186,
            19760,
            "CIBICVAL",
            "CIBIC Score",
            1,
            3,
            "Y",
            "",
            ">140",
            168,
            18,
            141,
            null,
            "DAYS",
            6003
          ],
          [
            254,
            "CDISCPILOT01",
            "705",
            "705",
            "01-705-1186",
            19731,
            19749,
            "Placebo",
            0,
            84,
            ">80",
            3,
            "WHITE",
            1,
            "F",
            "Y",
            "N",
            "N",
            "Week 8",
            8,
            "WEEK 4",
            5,
            31,
            19761,
            "CIBICVAL",
            "CIBIC Score",
            1,
            4,
            "Y",
            "",
            "2-84",
            56,
            25,
            2,
            84,
            "DAYS",
            6001
          ],
          [
            255,
            "CDISCPILOT01",
            "705",
            "705",
            "01-705-1186",
            19731,
            19749,
            "Placebo",
            0,
            84,
            ">80",
            3,
            "WHITE",
            1,
            "F",
            "Y",
            "N",
            "N",
            "Week 16",
            16,
            "WEEK 4",
            5,
            31,
            19761,
            "CIBICVAL",
            "CIBIC Score",
            1,
            4,
            "Y",
            "LOCF",
            "85-140",
            112,
            81,
            85,
            140,
            "DAYS",
            6001
          ],
          [
            256,
            "CDISCPILOT01",
            "705",
            "705",
            "01-705-1186",
            19731,
            19749,
            "Placebo",
            0,
            84,
            ">80",
            3,
            "WHITE",
            1,
            "F",
            "Y",
            "N",
            "N",
            "Week 24",
            24,
            "WEEK 4",
            5,
            31,
            19761,
            "CIBICVAL",
            "CIBIC Score",
            1,
            4,
            "Y",
            "LOCF",
            ">140",
            168,
            137,
            141,
            null,
            "DAYS",
            6001
          ],
          [
            257,
            "CDISCPILOT01",
            "705",
            "705",
            "01-705-1199",
            19617,
            19629,
            "Xanomeline Low Dose",
            54,
            87,
            ">80",
            3,
            "WHITE",
            1,
            "M",
            "Y",
            "Y",
            "N",
            "Week 8",
            8,
            "WEEK 2",
            4,
            14,
            19630,
            "CIBICVAL",
            "CIBIC Score",
            1,
            4,
            "Y",
            "",
            "2-84",
            56,
            42,
            2,
            84,
            "DAYS",
            6001
          ],
          [
            258,
            "CDISCPILOT01",
            "705",
            "705",
            "01-705-1199",
            19617,
            19629,
            "Xanomeline Low Dose",
            54,
            87,
            ">80",
            3,
            "WHITE",
            1,
            "M",
            "Y",
            "Y",
            "N",
            "Week 16",
            16,
            "WEEK 2",
            4,
            14,
            19630,
            "CIBICVAL",
            "CIBIC Score",
            1,
            4,
            "Y",
            "LOCF",
            "85-140",
            112,
            98,
            85,
            140,
            "DAYS",
            6001
          ],
          [
            259,
            "CDISCPILOT01",
            "705",
            "705",
            "01-705-1199",
            19617,
            19629,
            "Xanomeline Low Dose",
            54,
            87,
            ">80",
            3,
            "WHITE",
            1,
            "M",
            "Y",
            "Y",
            "N",
            "Week 24",
            24,
            "WEEK 2",
            4,
            14,
            19630,
            "CIBICVAL",
            "CIBIC Score",
            1,
            4,
            "Y",
            "LOCF",
            ">140",
            168,
            154,
            141,
            null,
            "DAYS",
            6001
          ],
          [
            260,
            "CDISCPILOT01",
            "705",
            "705",
            "01-705-1280",
            19740,
            19929,
            "Xanomeline High Dose",
            81,
            56,
            "<65",
            1,
            "WHITE",
            1,
            "F",
            "Y",
            "Y",
            "Y",
            "Week 8",
            8,
            "WEEK 8",
            8,
            64,
            19803,
            "CIBICVAL",
            "CIBIC Score",
            1,
            4,
            "Y",
            "",
            "2-84",
            56,
            8,
            2,
            84,
            "DAYS",
            6001
          ],
          [
            261,
            "CDISCPILOT01",
            "705",
            "705",
            "01-705-1280",
            19740,
            19929,
            "Xanomeline High Dose",
            81,
            56,
            "<65",
            1,
            "WHITE",
            1,
            "F",
            "Y",
            "Y",
            "Y",
            "Week 16",
            16,
            "WEEK 16",
            10,
            120,
            19859,
            "CIBICVAL",
            "CIBIC Score",
            1,
            4,
            "Y",
            "",
            "85-140",
            112,
            8,
            85,
            140,
            "DAYS",
            6002
          ],
          [
            262,
            "CDISCPILOT01",
            "705",
            "705",
            "01-705-1280",
            19740,
            19929,
            "Xanomeline High Dose",
            81,
            56,
            "<65",
            1,
            "WHITE",
            1,
            "F",
            "Y",
            "Y",
            "Y",
            "Week 24",
            24,
            "WEEK 24",
            12,
            176,
            19915,
            "CIBICVAL",
            "CIBIC Score",
            1,
            4,
            "Y",
            "",
            ">140",
            168,
            8,
            141,
            null,
            "DAYS",
            6003
          ],
          [
            263,
            "CDISCPILOT01",
            "705",
            "705",
            "01-705-1281",
            19690,
            19781,
            "Xanomeline High Dose",
            81,
            73,
            "65-80",
            2,
            "BLACK OR AFRICAN AMERICAN",
            2,
            "F",
            "Y",
            "Y",
            "N",
            "Week 8",
            8,
            "WEEK 8",
            8,
            55,
            19744,
            "CIBICVAL",
            "CIBIC Score",
            1,
            4,
            "Y",
            "",
            "2-84",
            56,
            1,
            2,
            84,
            "DAYS",
            6001
          ],
          [
            264,
            "CDISCPILOT01",
            "705",
            "705",
            "01-705-1281",
            19690,
            19781,
            "Xanomeline High Dose",
            81,
            73,
            "65-80",
            2,
            "BLACK OR AFRICAN AMERICAN",
            2,
            "F",
            "Y",
            "Y",
            "N",
            "Week 16",
            16,
            "WEEK 16",
            10,
            110,
            19799,
            "CIBICVAL",
            "CIBIC Score",
            1,
            4,
            "Y",
            "",
            "85-140",
            112,
            2,
            85,
            140,
            "DAYS",
            6002
          ],
          [
            265,
            "CDISCPILOT01",
            "705",
            "705",
            "01-705-1281",
            19690,
            19781,
            "Xanomeline High Dose",
            81,
            73,
            "65-80",
            2,
            "BLACK OR AFRICAN AMERICAN",
            2,
            "F",
            "Y",
            "Y",
            "N",
            "Week 24",
            24,
            "WEEK 16",
            10,
            110,
            19799,
            "CIBICVAL",
            "CIBIC Score",
            1,
            4,
            "Y",
            "LOCF",
            ">140",
            168,
            58,
            141,
            null,
            "DAYS",
            6002
          ],
          [
            266,
            "CDISCPILOT01",
            "705",
            "705",
