{"creationDateTime": "2024-03-08T11:04:58", "datasetJSONVersion": "1.1.0", "fileOID": "Covance Laboratories/Study8326556-Define2-XML_2.0.0/2024-03-08/co", "name": "CO", "label": "Comments", "asOfDateTime": "2023-05-31T00:00:00", "originator": "CDISC SEND Team", "sourceSystem": "Visual Define-XML Editor", "sourceSystemVersion": "1.0.0-beta.2", "studyOID": "8326556", "metaDataVersionOID": "CDISC-SEND.3.1", "metaDataRef": "define.xml", "itemGroupOID": "IG.CO", "records": 2, "columns": [{"itemOID": "ITEMGROUPDATASEQ", "name": "ITEMGROUPDATASEQ", "label": "Record Identifier", "dataType": "integer"}, {"itemOID": "IT.CO.STUDYID", "name": "STUDYID", "label": "Study Identifier", "dataType": "string", "length": 7, "keySequence": 1}, {"itemOID": "IT.CO.DOMAIN", "name": "DOMAIN", "label": "Domain Abbreviation", "dataType": "string", "length": 2}, {"itemOID": "IT.CO.RDOMAIN", "name": "RDOMAIN", "label": "Related Domain Abbreviation", "dataType": "string", "length": 2, "keySequence": 2}, {"itemOID": "IT.CO.USUBJID", "name": "USUBJID", "label": "Unique Subject Identifier", "dataType": "string", "length": 14, "keySequence": 3}, {"itemOID": "IT.CO.COSEQ", "name": "COSEQ", "label": "Sequence Number", "dataType": "integer", "length": 8}, {"itemOID": "IT.CO.IDVAR", "name": "IDVAR", "label": "Identifying Variable", "dataType": "string", "length": 7, "keySequence": 4}, {"itemOID": "IT.CO.IDVARVAL", "name": "IDVARVAL", "label": "Identifying Variable Value", "dataType": "string", "length": 7, "keySequence": 5}, {"itemOID": "IT.CO.COVAL", "name": "COVAL", "label": "Comment", "dataType": "string", "length": 10}, {"itemOID": "IT.CO.CODTC", "name": "CODTC", "label": "Date/Time of Comment", "dataType": "string", "length": 19, "keySequence": 6}, {"itemOID": "IT.CO.CODY", "name": "CODY", "label": "Study Day of Comment", "dataType": "integer", "length": 8}], "rows": [[1, "8326556", "CO", "LB", "8326556-I10811", 1, "LBSEQ", "516", "PC", "", null], [2, "8326556", "CO", "LB", "8326556-I10811", 2, "LBGRPID", "1303316", "red opaque", "2015-07-27T06:24:07", -4]]}