{"datasetJSONCreationDateTime": "2024-08-01T16:35:40", "datasetJSONVersion": "1.1.0", "fileOID": "Covance Laboratories/Study8326556-Define2-XML_2.0.0/2024-08-01/co", "dbLastModifiedDateTime": "2019-10-03T10:03:31", "originator": "CDISC SEND Team", "sourceSystem": {"name": "SAS on X64_10PRO", "version": "9.0401M7"}, "studyOID": "8326556", "metaDataVersionOID": "CDISC-SEND.3.1", "metaDataRef": "define.xml", "itemGroupOID": "IG.CO", "isReferenceData": false, "records": 2, "name": "CO", "label": "Comments", "columns": [{"itemOID": "ITEMGROUPDATASEQ", "name": "ITEMGROUPDATASEQ", "label": "Record Identifier", "dataType": "integer"}, {"itemOID": "IT.CO.STUDYID", "name": "STUDYID", "label": "Study Identifier", "dataType": "string", "length": 7, "keySequence": 1}, {"itemOID": "IT.CO.DOMAIN", "name": "DOMAIN", "label": "Domain Abbreviation", "dataType": "string", "length": 2}, {"itemOID": "IT.CO.RDOMAIN", "name": "RDOMAIN", "label": "Related Domain Abbreviation", "dataType": "string", "length": 2, "keySequence": 2}, {"itemOID": "IT.CO.USUBJID", "name": "USUBJID", "label": "Unique Subject Identifier", "dataType": "string", "length": 14, "keySequence": 3}, {"itemOID": "IT.CO.COSEQ", "name": "COSEQ", "label": "Sequence Number", "dataType": "integer"}, {"itemOID": "IT.CO.IDVAR", "name": "IDVAR", "label": "Identifying Variable", "dataType": "string", "length": 7, "keySequence": 4}, {"itemOID": "IT.CO.IDVARVAL", "name": "IDVARVAL", "label": "Identifying Variable Value", "dataType": "string", "length": 7, "keySequence": 5}, {"itemOID": "IT.CO.COVAL", "name": "COVAL", "label": "Comment", "dataType": "string", "length": 10}, {"itemOID": "IT.CO.CODTC", "name": "CODTC", "label": "Date/Time of Comment", "dataType": "datetime", "keySequence": 6}, {"itemOID": "IT.CO.CODY", "name": "CODY", "label": "Study Day of Comment", "dataType": "integer"}]}
[1, "8326556", "CO", "LB", "8326556-I10811", 1, "LBSEQ", "516", "PC", "", null]
[2, "8326556", "CO", "LB", "8326556-I10811", 2, "LBGRPID", "1303316", "red opaque", "2015-07-27T06:24:07", -4]
