{"creationDateTime": "2024-03-08T11:04:58", "datasetJSONVersion": "1.1.0", "fileOID": "Covance Laboratories/Study8326556-Define2-XML_2.0.0/2024-03-08/ex", "name": "EX", "label": "Exposure", "asOfDateTime": "2023-05-31T00:00:00", "originator": "CDISC SEND Team", "sourceSystem": "Visual Define-XML Editor", "sourceSystemVersion": "1.0.0-beta.2", "studyOID": "8326556", "metaDataVersionOID": "CDISC-SEND.3.1", "metaDataRef": "define.xml", "itemGroupOID": "IG.EX", "records": 8, "columns": [{"itemOID": "ITEMGROUPDATASEQ", "name": "ITEMGROUPDATASEQ", "label": "Record Identifier", "dataType": "integer"}, {"itemOID": "IT.EX.STUDYID", "name": "STUDYID", "label": "Study Identifier", "dataType": "string", "length": 7, "keySequence": 1}, {"itemOID": "IT.EX.DOMAIN", "name": "DOMAIN", "label": "Domain Abbreviation", "dataType": "string", "length": 2}, {"itemOID": "IT.EX.USUBJID", "name": "USUBJID", "label": "Unique Subject Identifier", "dataType": "string", "length": 14, "keySequence": 2}, {"itemOID": "IT.EX.EXSEQ", "name": "EXSEQ", "label": "Sequence Number", "dataType": "integer", "length": 8}, {"itemOID": "IT.EX.EXTRT", "name": "EXTRT", "label": "Name of Actual Treatment", "dataType": "string", "length": 19, "keySequence": 3}, {"itemOID": "IT.EX.EXDOSE", "name": "EXDOSE", "label": "Dose per Administration", "dataType": "string", "targetDataType": "decimal", "length": 8}, {"itemOID": "IT.EX.EXDOSU", "name": "EXDOSU", "label": "Dose Units", "dataType": "string", "length": 7}, {"itemOID": "IT.EX.EXDOSFRM", "name": "EXDOSFRM", "label": "Dose Form", "dataType": "string", "length": 8}, {"itemOID": "IT.EX.EXDOSFRQ", "name": "EXDOSFRQ", "label": "Dosing Frequency Per Interval", "dataType": "string", "length": 5}, {"itemOID": "IT.EX.EXROUTE", "name": "EXROUTE", "label": "Route of Administration", "dataType": "string", "length": 13}, {"itemOID": "IT.EX.EXLOT", "name": "EXLOT", "label": "Lot Number", "dataType": "string", "length": 5}, {"itemOID": "IT.EX.EXTRTV", "name": "EXTRTV", "label": "Treatment Vehicle", "dataType": "string", "length": 1}, {"itemOID": "IT.EX.EXSTDTC", "name": "EXSTDTC", "label": "Start Date/Time of Treatment", "dataType": "string", "length": 19, "keySequence": 4}, {"itemOID": "IT.EX.EXSTDY", "name": "EXSTDY", "label": "Study Day of Start of Treatment", "dataType": "integer", "length": 8}], "rows": [[1, "8326556", "EX", "8326556-I10808", 1, "Hepatitis B Vaccine", 20, "ug/dose", "SOLUTION", "TWICE", "INTRAMUSCULAR", "GP7E7", "", "2015-07-31T09:04:27", 1], [2, "8326556", "EX", "8326556-I10808", 2, "Hepatitis B Vaccine", 20, "ug/dose", "SOLUTION", "TWICE", "INTRAMUSCULAR", "GP7E7", "", "2015-08-28T10:13:20", 29], [3, "8326556", "EX", "8326556-I10809", 3, "Hepatitis B Vaccine", 20, "ug/dose", "SOLUTION", "TWICE", "INTRAMUSCULAR", "GP7E7", "", "2015-07-31T09:06:17", 1], [4, "8326556", "EX", "8326556-I10809", 4, "Hepatitis B Vaccine", 20, "ug/dose", "SOLUTION", "TWICE", "INTRAMUSCULAR", "GP7E7", "", "2015-08-28T10:15:00", 29], [5, "8326556", "EX", "8326556-I10810", 5, "Hepatitis B Vaccine", 20, "ug/dose", "SOLUTION", "TWICE", "INTRAMUSCULAR", "GP7E7", "", "2015-07-31T09:08:56", 1], [6, "8326556", "EX", "8326556-I10810", 6, "Hepatitis B Vaccine", 20, "ug/dose", "SOLUTION", "TWICE", "INTRAMUSCULAR", "GP7E7", "", "2015-08-28T10:16:15", 29], [7, "8326556", "EX", "8326556-I10811", 7, "Hepatitis B Vaccine", 20, "ug/dose", "SOLUTION", "TWICE", "INTRAMUSCULAR", "GP7E7", "", "2015-07-31T09:10:58", 1], [8, "8326556", "EX", "8326556-I10811", 8, "Hepatitis B Vaccine", 20, "ug/dose", "SOLUTION", "TWICE", "INTRAMUSCULAR", "GP7E7", "", "2015-08-28T10:17:02", 29]]}