{"datasetJSONCreationDateTime": "2024-11-11T15:09:21", "datasetJSONVersion": "1.1.0", "fileOID": "Covance Laboratories/Study8326556-Define2-XML_2.0.0/2024-11-11/suppbg", "dbLastModifiedDateTime": "2019-10-03T10:03:27", "originator": "CDISC SEND Team", "sourceSystem": {"name": "SAS on X64_10PRO", "version": "9.0401M7"}, "studyOID": "8326556", "metaDataVersionOID": "CDISC-SEND.3.1", "metaDataRef": "define.xml", "itemGroupOID": "IG.SUPPBG", "records": 160, "name": "SUPPBG", "label": "Supplemental Body Weight Gain", "columns": [{"itemOID": "IT.SUPPBG.STUDYID", "name": "STUDYID", "label": "Study Identifier", "dataType": "string", "length": 7, "keySequence": 1}, {"itemOID": "IT.SUPPBG.RDOMAIN", "name": "RDOMAIN", "label": "Related Domain Abbreviation", "dataType": "string", "length": 2, "keySequence": 2}, {"itemOID": "IT.SUPPBG.USUBJID", "name": "USUBJID", "label": "Unique Subject Identifier", "dataType": "string", "length": 14, "keySequence": 3}, {"itemOID": "IT.SUPPBG.IDVAR", "name": "IDVAR", "label": "Identifying Variable", "dataType": "string", "length": 5, "keySequence": 4}, {"itemOID": "IT.SUPPBG.IDVARVAL", "name": "IDVARVAL", "label": "Identifying Variable Value", "dataType": "string", "length": 2, "keySequence": 5}, {"itemOID": "IT.SUPPBG.QNAM", "name": "QNAM", "label": "Qualifier Variable Name", "dataType": "string", "length": 8, "keySequence": 6}, {"itemOID": "IT.SUPPBG.QLABEL", "name": "QLABEL", "label": "Qualifier Variable Label", "dataType": "string", "length": 18}, {"itemOID": "IT.SUPPBG.QVAL", "name": "QVAL", "label": "Data Value", "dataType": "string", "length": 7}, {"itemOID": "IT.SUPPBG.QORIG", "name": "QORIG", "label": "Origin", "dataType": "string", "length": 9}]}
["8326556", "BG", "8326556-I10808", "BGSEQ", "1", "PHSNAME1", "Start Phase name", "Predose", "Collected"]
["8326556", "BG", "8326556-I10808", "BGSEQ", "1", "PHSNAME2", "End Phase name", "Predose", "Collected"]
["8326556", "BG", "8326556-I10808", "BGSEQ", "1", "PHSEDAY1", "Start Day of Phase", "1", "Collected"]
["8326556", "BG", "8326556-I10808", "BGSEQ", "1", "PHSEDAY2", "End Day of Phase", "8", "Collected"]
["8326556", "BG", "8326556-I10808", "BGSEQ", "2", "PHSNAME1", "Start Phase name", "Predose", "Collected"]
["8326556", "BG", "8326556-I10808", "BGSEQ", "2", "PHSNAME2", "End Phase name", "Dosing", "Collected"]
["8326556", "BG", "8326556-I10808", "BGSEQ", "2", "PHSEDAY1", "Start Day of Phase", "8", "Collected"]
["8326556", "BG", "8326556-I10808", "BGSEQ", "2", "PHSEDAY2", "End Day of Phase", "1", "Collected"]
["8326556", "BG", "8326556-I10808", "BGSEQ", "3", "PHSNAME1", "Start Phase name", "Dosing", "Collected"]
["8326556", "BG", "8326556-I10808", "BGSEQ", "3", "PHSNAME2", "End Phase name", "Dosing", "Collected"]
["8326556", "BG", "8326556-I10808", "BGSEQ", "3", "PHSEDAY1", "Start Day of Phase", "1", "Collected"]
["8326556", "BG", "8326556-I10808", "BGSEQ", "3", "PHSEDAY2", "End Day of Phase", "8", "Collected"]
["8326556", "BG", "8326556-I10808", "BGSEQ", "4", "PHSNAME1", "Start Phase name", "Dosing", "Collected"]
["8326556", "BG", "8326556-I10808", "BGSEQ", "4", "PHSNAME2", "End Phase name", "Dosing", "Collected"]
["8326556", "BG", "8326556-I10808", "BGSEQ", "4", "PHSEDAY1", "Start Day of Phase", "8", "Collected"]
["8326556", "BG", "8326556-I10808", "BGSEQ", "4", "PHSEDAY2", "End Day of Phase", "15", "Collected"]
["8326556", "BG", "8326556-I10808", "BGSEQ", "5", "PHSNAME1", "Start Phase name", "Dosing", "Collected"]
["8326556", "BG", "8326556-I10808", "BGSEQ", "5", "PHSNAME2", "End Phase name", "Dosing", "Collected"]
["8326556", "BG", "8326556-I10808", "BGSEQ", "5", "PHSEDAY1", "Start Day of Phase", "15", "Collected"]
["8326556", "BG", "8326556-I10808", "BGSEQ", "5", "PHSEDAY2", "End Day of Phase", "22", "Collected"]
["8326556", "BG", "8326556-I10808", "BGSEQ", "6", "PHSNAME1", "Start Phase name", "Dosing", "Collected"]
["8326556", "BG", "8326556-I10808", "BGSEQ", "6", "PHSNAME2", "End Phase name", "Dosing", "Collected"]
["8326556", "BG", "8326556-I10808", "BGSEQ", "6", "PHSEDAY1", "Start Day of Phase", "22", "Collected"]
["8326556", "BG", "8326556-I10808", "BGSEQ", "6", "PHSEDAY2", "End Day of Phase", "29", "Collected"]
["8326556", "BG", "8326556-I10808", "BGSEQ", "7", "PHSNAME1", "Start Phase name", "Dosing", "Collected"]
["8326556", "BG", "8326556-I10808", "BGSEQ", "7", "PHSNAME2", "End Phase name", "Dosing", "Collected"]
["8326556", "BG", "8326556-I10808", "BGSEQ", "7", "PHSEDAY1", "Start Day of Phase", "29", "Collected"]
["8326556", "BG", "8326556-I10808", "BGSEQ", "7", "PHSEDAY2", "End Day of Phase", "36", "Collected"]
["8326556", "BG", "8326556-I10808", "BGSEQ", "8", "PHSNAME1", "Start Phase name", "Dosing", "Collected"]
["8326556", "BG", "8326556-I10808", "BGSEQ", "8", "PHSNAME2", "End Phase name", "Dosing", "Collected"]
["8326556", "BG", "8326556-I10808", "BGSEQ", "8", "PHSEDAY1", "Start Day of Phase", "36", "Collected"]
["8326556", "BG", "8326556-I10808", "BGSEQ", "8", "PHSEDAY2", "End Day of Phase", "43", "Collected"]
["8326556", "BG", "8326556-I10808", "BGSEQ", "9", "PHSNAME1", "Start Phase name", "Dosing", "Collected"]
["8326556", "BG", "8326556-I10808", "BGSEQ", "9", "PHSNAME2", "End Phase name", "Dosing", "Collected"]
["8326556", "BG", "8326556-I10808", "BGSEQ", "9", "PHSEDAY1", "Start Day of Phase", "43", "Collected"]
["8326556", "BG", "8326556-I10808", "BGSEQ", "9", "PHSEDAY2", "End Day of Phase", "50", "Collected"]
["8326556", "BG", "8326556-I10808", "BGSEQ", "10", "PHSNAME1", "Start Phase name", "Dosing", "Collected"]
["8326556", "BG", "8326556-I10808", "BGSEQ", "10", "PHSNAME2", "End Phase name", "Dosing", "Collected"]
["8326556", "BG", "8326556-I10808", "BGSEQ", "10", "PHSEDAY1", "Start Day of Phase", "50", "Collected"]
["8326556", "BG", "8326556-I10808", "BGSEQ", "10", "PHSEDAY2", "End Day of Phase", "57", "Collected"]
["8326556", "BG", "8326556-I10809", "BGSEQ", "11", "PHSNAME1", "Start Phase name", "Predose", "Collected"]
["8326556", "BG", "8326556-I10809", "BGSEQ", "11", "PHSNAME2", "End Phase name", "Predose", "Collected"]
["8326556", "BG", "8326556-I10809", "BGSEQ", "11", "PHSEDAY1", "Start Day of Phase", "1", "Collected"]
["8326556", "BG", "8326556-I10809", "BGSEQ", "11", "PHSEDAY2", "End Day of Phase", "8", "Collected"]
["8326556", "BG", "8326556-I10809", "BGSEQ", "12", "PHSNAME1", "Start Phase name", "Predose", "Collected"]
["8326556", "BG", "8326556-I10809", "BGSEQ", "12", "PHSNAME2", "End Phase name", "Dosing", "Collected"]
["8326556", "BG", "8326556-I10809", "BGSEQ", "12", "PHSEDAY1", "Start Day of Phase", "8", "Collected"]
["8326556", "BG", "8326556-I10809", "BGSEQ", "12", "PHSEDAY2", "End Day of Phase", "1", "Collected"]
["8326556", "BG", "8326556-I10809", "BGSEQ", "13", "PHSNAME1", "Start Phase name", "Dosing", "Collected"]
["8326556", "BG", "8326556-I10809", "BGSEQ", "13", "PHSNAME2", "End Phase name", "Dosing", "Collected"]
["8326556", "BG", "8326556-I10809", "BGSEQ", "13", "PHSEDAY1", "Start Day of Phase", "1", "Collected"]
["8326556", "BG", "8326556-I10809", "BGSEQ", "13", "PHSEDAY2", "End Day of Phase", "8", "Collected"]
["8326556", "BG", "8326556-I10809", "BGSEQ", "14", "PHSNAME1", "Start Phase name", "Dosing", "Collected"]
["8326556", "BG", "8326556-I10809", "BGSEQ", "14", "PHSNAME2", "End Phase name", "Dosing", "Collected"]
["8326556", "BG", "8326556-I10809", "BGSEQ", "14", "PHSEDAY1", "Start Day of Phase", "8", "Collected"]
["8326556", "BG", "8326556-I10809", "BGSEQ", "14", "PHSEDAY2", "End Day of Phase", "15", "Collected"]
["8326556", "BG", "8326556-I10809", "BGSEQ", "15", "PHSNAME1", "Start Phase name", "Dosing", "Collected"]
["8326556", "BG", "8326556-I10809", "BGSEQ", "15", "PHSNAME2", "End Phase name", "Dosing", "Collected"]
["8326556", "BG", "8326556-I10809", "BGSEQ", "15", "PHSEDAY1", "Start Day of Phase", "15", "Collected"]
["8326556", "BG", "8326556-I10809", "BGSEQ", "15", "PHSEDAY2", "End Day of Phase", "22", "Collected"]
["8326556", "BG", "8326556-I10809", "BGSEQ", "16", "PHSNAME1", "Start Phase name", "Dosing", "Collected"]
["8326556", "BG", "8326556-I10809", "BGSEQ", "16", "PHSNAME2", "End Phase name", "Dosing", "Collected"]
["8326556", "BG", "8326556-I10809", "BGSEQ", "16", "PHSEDAY1", "Start Day of Phase", "22", "Collected"]
["8326556", "BG", "8326556-I10809", "BGSEQ", "16", "PHSEDAY2", "End Day of Phase", "29", "Collected"]
["8326556", "BG", "8326556-I10809", "BGSEQ", "17", "PHSNAME1", "Start Phase name", "Dosing", "Collected"]
["8326556", "BG", "8326556-I10809", "BGSEQ", "17", "PHSNAME2", "End Phase name", "Dosing", "Collected"]
["8326556", "BG", "8326556-I10809", "BGSEQ", "17", "PHSEDAY1", "Start Day of Phase", "29", "Collected"]
["8326556", "BG", "8326556-I10809", "BGSEQ", "17", "PHSEDAY2", "End Day of Phase", "36", "Collected"]
["8326556", "BG", "8326556-I10809", "BGSEQ", "18", "PHSNAME1", "Start Phase name", "Dosing", "Collected"]
["8326556", "BG", "8326556-I10809", "BGSEQ", "18", "PHSNAME2", "End Phase name", "Dosing", "Collected"]
["8326556", "BG", "8326556-I10809", "BGSEQ", "18", "PHSEDAY1", "Start Day of Phase", "36", "Collected"]
["8326556", "BG", "8326556-I10809", "BGSEQ", "18", "PHSEDAY2", "End Day of Phase", "43", "Collected"]
["8326556", "BG", "8326556-I10809", "BGSEQ", "19", "PHSNAME1", "Start Phase name", "Dosing", "Collected"]
["8326556", "BG", "8326556-I10809", "BGSEQ", "19", "PHSNAME2", "End Phase name", "Dosing", "Collected"]
["8326556", "BG", "8326556-I10809", "BGSEQ", "19", "PHSEDAY1", "Start Day of Phase", "43", "Collected"]
["8326556", "BG", "8326556-I10809", "BGSEQ", "19", "PHSEDAY2", "End Day of Phase", "50", "Collected"]
["8326556", "BG", "8326556-I10809", "BGSEQ", "20", "PHSNAME1", "Start Phase name", "Dosing", "Collected"]
["8326556", "BG", "8326556-I10809", "BGSEQ", "20", "PHSNAME2", "End Phase name", "Dosing", "Collected"]
["8326556", "BG", "8326556-I10809", "BGSEQ", "20", "PHSEDAY1", "Start Day of Phase", "50", "Collected"]
["8326556", "BG", "8326556-I10809", "BGSEQ", "20", "PHSEDAY2", "End Day of Phase", "57", "Collected"]
["8326556", "BG", "8326556-I10810", "BGSEQ", "21", "PHSNAME1", "Start Phase name", "Predose", "Collected"]
["8326556", "BG", "8326556-I10810", "BGSEQ", "21", "PHSNAME2", "End Phase name", "Predose", "Collected"]
["8326556", "BG", "8326556-I10810", "BGSEQ", "21", "PHSEDAY1", "Start Day of Phase", "1", "Collected"]
["8326556", "BG", "8326556-I10810", "BGSEQ", "21", "PHSEDAY2", "End Day of Phase", "8", "Collected"]
["8326556", "BG", "8326556-I10810", "BGSEQ", "22", "PHSNAME1", "Start Phase name", "Predose", "Collected"]
["8326556", "BG", "8326556-I10810", "BGSEQ", "22", "PHSNAME2", "End Phase name", "Dosing", "Collected"]
["8326556", "BG", "8326556-I10810", "BGSEQ", "22", "PHSEDAY1", "Start Day of Phase", "8", "Collected"]
["8326556", "BG", "8326556-I10810", "BGSEQ", "22", "PHSEDAY2", "End Day of Phase", "1", "Collected"]
["8326556", "BG", "8326556-I10810", "BGSEQ", "23", "PHSNAME1", "Start Phase name", "Dosing", "Collected"]
["8326556", "BG", "8326556-I10810", "BGSEQ", "23", "PHSNAME2", "End Phase name", "Dosing", "Collected"]
["8326556", "BG", "8326556-I10810", "BGSEQ", "23", "PHSEDAY1", "Start Day of Phase", "1", "Collected"]
["8326556", "BG", "8326556-I10810", "BGSEQ", "23", "PHSEDAY2", "End Day of Phase", "8", "Collected"]
["8326556", "BG", "8326556-I10810", "BGSEQ", "24", "PHSNAME1", "Start Phase name", "Dosing", "Collected"]
["8326556", "BG", "8326556-I10810", "BGSEQ", "24", "PHSNAME2", "End Phase name", "Dosing", "Collected"]
["8326556", "BG", "8326556-I10810", "BGSEQ", "24", "PHSEDAY1", "Start Day of Phase", "8", "Collected"]
["8326556", "BG", "8326556-I10810", "BGSEQ", "24", "PHSEDAY2", "End Day of Phase", "15", "Collected"]
["8326556", "BG", "8326556-I10810", "BGSEQ", "25", "PHSNAME1", "Start Phase name", "Dosing", "Collected"]
["8326556", "BG", "8326556-I10810", "BGSEQ", "25", "PHSNAME2", "End Phase name", "Dosing", "Collected"]
["8326556", "BG", "8326556-I10810", "BGSEQ", "25", "PHSEDAY1", "Start Day of Phase", "15", "Collected"]
["8326556", "BG", "8326556-I10810", "BGSEQ", "25", "PHSEDAY2", "End Day of Phase", "22", "Collected"]
["8326556", "BG", "8326556-I10810", "BGSEQ", "26", "PHSNAME1", "Start Phase name", "Dosing", "Collected"]
["8326556", "BG", "8326556-I10810", "BGSEQ", "26", "PHSNAME2", "End Phase name", "Dosing", "Collected"]
["8326556", "BG", "8326556-I10810", "BGSEQ", "26", "PHSEDAY1", "Start Day of Phase", "22", "Collected"]
["8326556", "BG", "8326556-I10810", "BGSEQ", "26", "PHSEDAY2", "End Day of Phase", "29", "Collected"]
["8326556", "BG", "8326556-I10810", "BGSEQ", "27", "PHSNAME1", "Start Phase name", "Dosing", "Collected"]
["8326556", "BG", "8326556-I10810", "BGSEQ", "27", "PHSNAME2", "End Phase name", "Dosing", "Collected"]
["8326556", "BG", "8326556-I10810", "BGSEQ", "27", "PHSEDAY1", "Start Day of Phase", "29", "Collected"]
["8326556", "BG", "8326556-I10810", "BGSEQ", "27", "PHSEDAY2", "End Day of Phase", "36", "Collected"]
["8326556", "BG", "8326556-I10810", "BGSEQ", "28", "PHSNAME1", "Start Phase name", "Dosing", "Collected"]
["8326556", "BG", "8326556-I10810", "BGSEQ", "28", "PHSNAME2", "End Phase name", "Dosing", "Collected"]
["8326556", "BG", "8326556-I10810", "BGSEQ", "28", "PHSEDAY1", "Start Day of Phase", "36", "Collected"]
["8326556", "BG", "8326556-I10810", "BGSEQ", "28", "PHSEDAY2", "End Day of Phase", "43", "Collected"]
["8326556", "BG", "8326556-I10810", "BGSEQ", "29", "PHSNAME1", "Start Phase name", "Dosing", "Collected"]
["8326556", "BG", "8326556-I10810", "BGSEQ", "29", "PHSNAME2", "End Phase name", "Dosing", "Collected"]
["8326556", "BG", "8326556-I10810", "BGSEQ", "29", "PHSEDAY1", "Start Day of Phase", "43", "Collected"]
["8326556", "BG", "8326556-I10810", "BGSEQ", "29", "PHSEDAY2", "End Day of Phase", "50", "Collected"]
["8326556", "BG", "8326556-I10810", "BGSEQ", "30", "PHSNAME1", "Start Phase name", "Dosing", "Collected"]
["8326556", "BG", "8326556-I10810", "BGSEQ", "30", "PHSNAME2", "End Phase name", "Dosing", "Collected"]
["8326556", "BG", "8326556-I10810", "BGSEQ", "30", "PHSEDAY1", "Start Day of Phase", "50", "Collected"]
["8326556", "BG", "8326556-I10810", "BGSEQ", "30", "PHSEDAY2", "End Day of Phase", "57", "Collected"]
["8326556", "BG", "8326556-I10811", "BGSEQ", "31", "PHSNAME1", "Start Phase name", "Predose", "Collected"]
["8326556", "BG", "8326556-I10811", "BGSEQ", "31", "PHSNAME2", "End Phase name", "Predose", "Collected"]
["8326556", "BG", "8326556-I10811", "BGSEQ", "31", "PHSEDAY1", "Start Day of Phase", "1", "Collected"]
["8326556", "BG", "8326556-I10811", "BGSEQ", "31", "PHSEDAY2", "End Day of Phase", "8", "Collected"]
["8326556", "BG", "8326556-I10811", "BGSEQ", "32", "PHSNAME1", "Start Phase name", "Predose", "Collected"]
["8326556", "BG", "8326556-I10811", "BGSEQ", "32", "PHSNAME2", "End Phase name", "Dosing", "Collected"]
["8326556", "BG", "8326556-I10811", "BGSEQ", "32", "PHSEDAY1", "Start Day of Phase", "8", "Collected"]
["8326556", "BG", "8326556-I10811", "BGSEQ", "32", "PHSEDAY2", "End Day of Phase", "1", "Collected"]
["8326556", "BG", "8326556-I10811", "BGSEQ", "33", "PHSNAME1", "Start Phase name", "Dosing", "Collected"]
["8326556", "BG", "8326556-I10811", "BGSEQ", "33", "PHSNAME2", "End Phase name", "Dosing", "Collected"]
["8326556", "BG", "8326556-I10811", "BGSEQ", "33", "PHSEDAY1", "Start Day of Phase", "1", "Collected"]
["8326556", "BG", "8326556-I10811", "BGSEQ", "33", "PHSEDAY2", "End Day of Phase", "8", "Collected"]
["8326556", "BG", "8326556-I10811", "BGSEQ", "34", "PHSNAME1", "Start Phase name", "Dosing", "Collected"]
["8326556", "BG", "8326556-I10811", "BGSEQ", "34", "PHSNAME2", "End Phase name", "Dosing", "Collected"]
["8326556", "BG", "8326556-I10811", "BGSEQ", "34", "PHSEDAY1", "Start Day of Phase", "8", "Collected"]
["8326556", "BG", "8326556-I10811", "BGSEQ", "34", "PHSEDAY2", "End Day of Phase", "15", "Collected"]
["8326556", "BG", "8326556-I10811", "BGSEQ", "35", "PHSNAME1", "Start Phase name", "Dosing", "Collected"]
["8326556", "BG", "8326556-I10811", "BGSEQ", "35", "PHSNAME2", "End Phase name", "Dosing", "Collected"]
["8326556", "BG", "8326556-I10811", "BGSEQ", "35", "PHSEDAY1", "Start Day of Phase", "15", "Collected"]
["8326556", "BG", "8326556-I10811", "BGSEQ", "35", "PHSEDAY2", "End Day of Phase", "22", "Collected"]
["8326556", "BG", "8326556-I10811", "BGSEQ", "36", "PHSNAME1", "Start Phase name", "Dosing", "Collected"]
["8326556", "BG", "8326556-I10811", "BGSEQ", "36", "PHSNAME2", "End Phase name", "Dosing", "Collected"]
["8326556", "BG", "8326556-I10811", "BGSEQ", "36", "PHSEDAY1", "Start Day of Phase", "22", "Collected"]
["8326556", "BG", "8326556-I10811", "BGSEQ", "36", "PHSEDAY2", "End Day of Phase", "29", "Collected"]
["8326556", "BG", "8326556-I10811", "BGSEQ", "37", "PHSNAME1", "Start Phase name", "Dosing", "Collected"]
["8326556", "BG", "8326556-I10811", "BGSEQ", "37", "PHSNAME2", "End Phase name", "Dosing", "Collected"]
["8326556", "BG", "8326556-I10811", "BGSEQ", "37", "PHSEDAY1", "Start Day of Phase", "29", "Collected"]
["8326556", "BG", "8326556-I10811", "BGSEQ", "37", "PHSEDAY2", "End Day of Phase", "36", "Collected"]
["8326556", "BG", "8326556-I10811", "BGSEQ", "38", "PHSNAME1", "Start Phase name", "Dosing", "Collected"]
["8326556", "BG", "8326556-I10811", "BGSEQ", "38", "PHSNAME2", "End Phase name", "Dosing", "Collected"]
["8326556", "BG", "8326556-I10811", "BGSEQ", "38", "PHSEDAY1", "Start Day of Phase", "36", "Collected"]
["8326556", "BG", "8326556-I10811", "BGSEQ", "38", "PHSEDAY2", "End Day of Phase", "43", "Collected"]
["8326556", "BG", "8326556-I10811", "BGSEQ", "39", "PHSNAME1", "Start Phase name", "Dosing", "Collected"]
["8326556", "BG", "8326556-I10811", "BGSEQ", "39", "PHSNAME2", "End Phase name", "Dosing", "Collected"]
["8326556", "BG", "8326556-I10811", "BGSEQ", "39", "PHSEDAY1", "Start Day of Phase", "43", "Collected"]
["8326556", "BG", "8326556-I10811", "BGSEQ", "39", "PHSEDAY2", "End Day of Phase", "50", "Collected"]
["8326556", "BG", "8326556-I10811", "BGSEQ", "40", "PHSNAME1", "Start Phase name", "Dosing", "Collected"]
["8326556", "BG", "8326556-I10811", "BGSEQ", "40", "PHSNAME2", "End Phase name", "Dosing", "Collected"]
["8326556", "BG", "8326556-I10811", "BGSEQ", "40", "PHSEDAY1", "Start Day of Phase", "50", "Collected"]
["8326556", "BG", "8326556-I10811", "BGSEQ", "40", "PHSEDAY2", "End Day of Phase", "57", "Collected"]
