{"datasetJSONCreationDateTime": "2024-11-11T15:09:21", "datasetJSONVersion": "1.1.0", "fileOID": "Covance Laboratories/Study8326556-Define2-XML_2.0.0/2024-11-11/suppbw", "dbLastModifiedDateTime": "2019-10-03T10:03:27", "originator": "CDISC SEND Team", "sourceSystem": {"name": "SAS on X64_10PRO", "version": "9.0401M7"}, "studyOID": "8326556", "metaDataVersionOID": "CDISC-SEND.3.1", "metaDataRef": "define.xml", "itemGroupOID": "IG.SUPPBW", "records": 88, "name": "SUPPBW", "label": "Supplemental Body Weight", "columns": [{"itemOID": "IT.SUPPBW.STUDYID", "name": "STUDYID", "label": "Study Identifier", "dataType": "string", "length": 7, "keySequence": 1}, {"itemOID": "IT.SUPPBW.RDOMAIN", "name": "RDOMAIN", "label": "Related Domain Abbreviation", "dataType": "string", "length": 2, "keySequence": 2}, {"itemOID": "IT.SUPPBW.USUBJID", "name": "USUBJID", "label": "Unique Subject Identifier", "dataType": "string", "length": 14, "keySequence": 3}, {"itemOID": "IT.SUPPBW.IDVAR", "name": "IDVAR", "label": "Identifying Variable", "dataType": "string", "length": 5, "keySequence": 4}, {"itemOID": "IT.SUPPBW.IDVARVAL", "name": "IDVARVAL", "label": "Identifying Variable Value", "dataType": "string", "length": 2, "keySequence": 5}, {"itemOID": "IT.SUPPBW.QNAM", "name": "QNAM", "label": "Qualifier Variable Name", "dataType": "string", "length": 8, "keySequence": 6}, {"itemOID": "IT.SUPPBW.QLABEL", "name": "QLABEL", "label": "Qualifier Variable Label", "dataType": "string", "length": 12}, {"itemOID": "IT.SUPPBW.QVAL", "name": "QVAL", "label": "Data Value", "dataType": "string", "length": 7}, {"itemOID": "IT.SUPPBW.QORIG", "name": "QORIG", "label": "Origin", "dataType": "string", "length": 9}]}
["8326556", "BW", "8326556-I10808", "BWSEQ", "1", "PHSENAME", "Phase name", "Predose", "Collected"]
["8326556", "BW", "8326556-I10808", "BWSEQ", "1", "PHASEDAY", "Day of Phase", "1", "Collected"]
["8326556", "BW", "8326556-I10808", "BWSEQ", "2", "PHSENAME", "Phase name", "Predose", "Collected"]
["8326556", "BW", "8326556-I10808", "BWSEQ", "2", "PHASEDAY", "Day of Phase", "8", "Collected"]
["8326556", "BW", "8326556-I10808", "BWSEQ", "3", "PHSENAME", "Phase name", "Dosing", "Collected"]
["8326556", "BW", "8326556-I10808", "BWSEQ", "3", "PHASEDAY", "Day of Phase", "1", "Collected"]
["8326556", "BW", "8326556-I10808", "BWSEQ", "4", "PHSENAME", "Phase name", "Dosing", "Collected"]
["8326556", "BW", "8326556-I10808", "BWSEQ", "4", "PHASEDAY", "Day of Phase", "8", "Collected"]
["8326556", "BW", "8326556-I10808", "BWSEQ", "5", "PHSENAME", "Phase name", "Dosing", "Collected"]
["8326556", "BW", "8326556-I10808", "BWSEQ", "5", "PHASEDAY", "Day of Phase", "15", "Collected"]
["8326556", "BW", "8326556-I10808", "BWSEQ", "6", "PHSENAME", "Phase name", "Dosing", "Collected"]
["8326556", "BW", "8326556-I10808", "BWSEQ", "6", "PHASEDAY", "Day of Phase", "22", "Collected"]
["8326556", "BW", "8326556-I10808", "BWSEQ", "7", "PHSENAME", "Phase name", "Dosing", "Collected"]
["8326556", "BW", "8326556-I10808", "BWSEQ", "7", "PHASEDAY", "Day of Phase", "29", "Collected"]
["8326556", "BW", "8326556-I10808", "BWSEQ", "8", "PHSENAME", "Phase name", "Dosing", "Collected"]
["8326556", "BW", "8326556-I10808", "BWSEQ", "8", "PHASEDAY", "Day of Phase", "36", "Collected"]
["8326556", "BW", "8326556-I10808", "BWSEQ", "9", "PHSENAME", "Phase name", "Dosing", "Collected"]
["8326556", "BW", "8326556-I10808", "BWSEQ", "9", "PHASEDAY", "Day of Phase", "43", "Collected"]
["8326556", "BW", "8326556-I10808", "BWSEQ", "10", "PHSENAME", "Phase name", "Dosing", "Collected"]
["8326556", "BW", "8326556-I10808", "BWSEQ", "10", "PHASEDAY", "Day of Phase", "50", "Collected"]
["8326556", "BW", "8326556-I10808", "BWSEQ", "11", "PHSENAME", "Phase name", "Dosing", "Collected"]
["8326556", "BW", "8326556-I10808", "BWSEQ", "11", "PHASEDAY", "Day of Phase", "57", "Collected"]
["8326556", "BW", "8326556-I10809", "BWSEQ", "12", "PHSENAME", "Phase name", "Predose", "Collected"]
["8326556", "BW", "8326556-I10809", "BWSEQ", "12", "PHASEDAY", "Day of Phase", "1", "Collected"]
["8326556", "BW", "8326556-I10809", "BWSEQ", "13", "PHSENAME", "Phase name", "Predose", "Collected"]
["8326556", "BW", "8326556-I10809", "BWSEQ", "13", "PHASEDAY", "Day of Phase", "8", "Collected"]
["8326556", "BW", "8326556-I10809", "BWSEQ", "14", "PHSENAME", "Phase name", "Dosing", "Collected"]
["8326556", "BW", "8326556-I10809", "BWSEQ", "14", "PHASEDAY", "Day of Phase", "1", "Collected"]
["8326556", "BW", "8326556-I10809", "BWSEQ", "15", "PHSENAME", "Phase name", "Dosing", "Collected"]
["8326556", "BW", "8326556-I10809", "BWSEQ", "15", "PHASEDAY", "Day of Phase", "8", "Collected"]
["8326556", "BW", "8326556-I10809", "BWSEQ", "16", "PHSENAME", "Phase name", "Dosing", "Collected"]
["8326556", "BW", "8326556-I10809", "BWSEQ", "16", "PHASEDAY", "Day of Phase", "15", "Collected"]
["8326556", "BW", "8326556-I10809", "BWSEQ", "17", "PHSENAME", "Phase name", "Dosing", "Collected"]
["8326556", "BW", "8326556-I10809", "BWSEQ", "17", "PHASEDAY", "Day of Phase", "22", "Collected"]
["8326556", "BW", "8326556-I10809", "BWSEQ", "18", "PHSENAME", "Phase name", "Dosing", "Collected"]
["8326556", "BW", "8326556-I10809", "BWSEQ", "18", "PHASEDAY", "Day of Phase", "29", "Collected"]
["8326556", "BW", "8326556-I10809", "BWSEQ", "19", "PHSENAME", "Phase name", "Dosing", "Collected"]
["8326556", "BW", "8326556-I10809", "BWSEQ", "19", "PHASEDAY", "Day of Phase", "36", "Collected"]
["8326556", "BW", "8326556-I10809", "BWSEQ", "20", "PHSENAME", "Phase name", "Dosing", "Collected"]
["8326556", "BW", "8326556-I10809", "BWSEQ", "20", "PHASEDAY", "Day of Phase", "43", "Collected"]
["8326556", "BW", "8326556-I10809", "BWSEQ", "21", "PHSENAME", "Phase name", "Dosing", "Collected"]
["8326556", "BW", "8326556-I10809", "BWSEQ", "21", "PHASEDAY", "Day of Phase", "50", "Collected"]
["8326556", "BW", "8326556-I10809", "BWSEQ", "22", "PHSENAME", "Phase name", "Dosing", "Collected"]
["8326556", "BW", "8326556-I10809", "BWSEQ", "22", "PHASEDAY", "Day of Phase", "57", "Collected"]
["8326556", "BW", "8326556-I10810", "BWSEQ", "23", "PHSENAME", "Phase name", "Predose", "Collected"]
["8326556", "BW", "8326556-I10810", "BWSEQ", "23", "PHASEDAY", "Day of Phase", "1", "Collected"]
["8326556", "BW", "8326556-I10810", "BWSEQ", "24", "PHSENAME", "Phase name", "Predose", "Collected"]
["8326556", "BW", "8326556-I10810", "BWSEQ", "24", "PHASEDAY", "Day of Phase", "8", "Collected"]
["8326556", "BW", "8326556-I10810", "BWSEQ", "25", "PHSENAME", "Phase name", "Dosing", "Collected"]
["8326556", "BW", "8326556-I10810", "BWSEQ", "25", "PHASEDAY", "Day of Phase", "1", "Collected"]
["8326556", "BW", "8326556-I10810", "BWSEQ", "26", "PHSENAME", "Phase name", "Dosing", "Collected"]
["8326556", "BW", "8326556-I10810", "BWSEQ", "26", "PHASEDAY", "Day of Phase", "8", "Collected"]
["8326556", "BW", "8326556-I10810", "BWSEQ", "27", "PHSENAME", "Phase name", "Dosing", "Collected"]
["8326556", "BW", "8326556-I10810", "BWSEQ", "27", "PHASEDAY", "Day of Phase", "15", "Collected"]
["8326556", "BW", "8326556-I10810", "BWSEQ", "28", "PHSENAME", "Phase name", "Dosing", "Collected"]
["8326556", "BW", "8326556-I10810", "BWSEQ", "28", "PHASEDAY", "Day of Phase", "22", "Collected"]
["8326556", "BW", "8326556-I10810", "BWSEQ", "29", "PHSENAME", "Phase name", "Dosing", "Collected"]
["8326556", "BW", "8326556-I10810", "BWSEQ", "29", "PHASEDAY", "Day of Phase", "29", "Collected"]
["8326556", "BW", "8326556-I10810", "BWSEQ", "30", "PHSENAME", "Phase name", "Dosing", "Collected"]
["8326556", "BW", "8326556-I10810", "BWSEQ", "30", "PHASEDAY", "Day of Phase", "36", "Collected"]
["8326556", "BW", "8326556-I10810", "BWSEQ", "31", "PHSENAME", "Phase name", "Dosing", "Collected"]
["8326556", "BW", "8326556-I10810", "BWSEQ", "31", "PHASEDAY", "Day of Phase", "43", "Collected"]
["8326556", "BW", "8326556-I10810", "BWSEQ", "32", "PHSENAME", "Phase name", "Dosing", "Collected"]
["8326556", "BW", "8326556-I10810", "BWSEQ", "32", "PHASEDAY", "Day of Phase", "50", "Collected"]
["8326556", "BW", "8326556-I10810", "BWSEQ", "33", "PHSENAME", "Phase name", "Dosing", "Collected"]
["8326556", "BW", "8326556-I10810", "BWSEQ", "33", "PHASEDAY", "Day of Phase", "57", "Collected"]
["8326556", "BW", "8326556-I10811", "BWSEQ", "34", "PHSENAME", "Phase name", "Predose", "Collected"]
["8326556", "BW", "8326556-I10811", "BWSEQ", "34", "PHASEDAY", "Day of Phase", "1", "Collected"]
["8326556", "BW", "8326556-I10811", "BWSEQ", "35", "PHSENAME", "Phase name", "Predose", "Collected"]
["8326556", "BW", "8326556-I10811", "BWSEQ", "35", "PHASEDAY", "Day of Phase", "8", "Collected"]
["8326556", "BW", "8326556-I10811", "BWSEQ", "36", "PHSENAME", "Phase name", "Dosing", "Collected"]
["8326556", "BW", "8326556-I10811", "BWSEQ", "36", "PHASEDAY", "Day of Phase", "1", "Collected"]
["8326556", "BW", "8326556-I10811", "BWSEQ", "37", "PHSENAME", "Phase name", "Dosing", "Collected"]
["8326556", "BW", "8326556-I10811", "BWSEQ", "37", "PHASEDAY", "Day of Phase", "8", "Collected"]
["8326556", "BW", "8326556-I10811", "BWSEQ", "38", "PHSENAME", "Phase name", "Dosing", "Collected"]
["8326556", "BW", "8326556-I10811", "BWSEQ", "38", "PHASEDAY", "Day of Phase", "15", "Collected"]
["8326556", "BW", "8326556-I10811", "BWSEQ", "39", "PHSENAME", "Phase name", "Dosing", "Collected"]
["8326556", "BW", "8326556-I10811", "BWSEQ", "39", "PHASEDAY", "Day of Phase", "22", "Collected"]
["8326556", "BW", "8326556-I10811", "BWSEQ", "40", "PHSENAME", "Phase name", "Dosing", "Collected"]
["8326556", "BW", "8326556-I10811", "BWSEQ", "40", "PHASEDAY", "Day of Phase", "29", "Collected"]
["8326556", "BW", "8326556-I10811", "BWSEQ", "41", "PHSENAME", "Phase name", "Dosing", "Collected"]
["8326556", "BW", "8326556-I10811", "BWSEQ", "41", "PHASEDAY", "Day of Phase", "36", "Collected"]
["8326556", "BW", "8326556-I10811", "BWSEQ", "42", "PHSENAME", "Phase name", "Dosing", "Collected"]
["8326556", "BW", "8326556-I10811", "BWSEQ", "42", "PHASEDAY", "Day of Phase", "43", "Collected"]
["8326556", "BW", "8326556-I10811", "BWSEQ", "43", "PHSENAME", "Phase name", "Dosing", "Collected"]
["8326556", "BW", "8326556-I10811", "BWSEQ", "43", "PHASEDAY", "Day of Phase", "50", "Collected"]
["8326556", "BW", "8326556-I10811", "BWSEQ", "44", "PHSENAME", "Phase name", "Dosing", "Collected"]
["8326556", "BW", "8326556-I10811", "BWSEQ", "44", "PHASEDAY", "Day of Phase", "57", "Collected"]
