{
  "clinicalData":{"studyOID":"cdisc.com/CDISCPILOT01","metaDataVersionOID":"MDV.MSGv2.0.SDTMIG.3.3.SDTM.1.7","itemGroupData": {"IG.DD":{"records":3,"name":"DD","label":"Death Details","items":[{"OID": "ITEMGROUPDATASEQ", "name": "ITEMGROUPDATASEQ", "label": "Record Identifier", "type": "integer"},{"OID": "IT.DD.STUDYID", "name":"STUDYID", "label":"Study Identifier", "type":"string", "length":12},{"OID": "IT.DD.DOMAIN", "name":"DOMAIN", "label":"Domain Abbreviation", "type":"string", "length":2},{"OID": "IT.DD.USUBJID", "name":"USUBJID", "label":"Unique Subject Identifier", "type":"string", "length":8},{"OID": "IT.DD.DDSEQ", "name":"DDSEQ", "label":"Sequence Number", "type":"integer", "length":3},{"OID": "IT.DD.DDLNKID", "name":"DDLNKID", "label":"Link ID", "type":"string", "length":50},{"OID": "IT.DD.DDTESTCD", "name":"DDTESTCD", "label":"Death Detail Assessment Short Name", "type":"string", "length":6},{"OID": "IT.DD.DDTEST", "name":"DDTEST", "label":"Death Detail Assessment Name", "type":"string", "length":22},{"OID": "IT.DD.DDORRES", "name":"DDORRES", "label":"Result or Finding as Collected", "type":"string", "length":200},{"OID": "IT.DD.DDSTRESC", "name":"DDSTRESC", "label":"Character Result/Finding in Std Format", "type":"string", "length":200},{"OID": "IT.DD.EPOCH", "name":"EPOCH", "label":"Epoch", "type":"string", "length":9},{"OID": "IT.DD.DDDTC", "name":"DDDTC", "label":"Date/Time of Collection", "type":"string"},{"OID": "IT.DD.DDDY", "name":"DDDY", "label":"Study Day of Collection", "type":"integer", "length":8}],"itemData": [
[1,"CDISCPILOT01","DD","CDISC002",1,"9","PRCDTH","Primary Cause of Death","SUDDEN DEATH","SUDDEN DEATH","TREATMENT","2013-01-14",61],
[2,"CDISCPILOT01","DD","CDISC008",1,"1","PRCDTH","Primary Cause of Death","COMPLETED SUICIDE","COMPLETED SUICIDE","TREATMENT","2014-11-01",175],
[3,"CDISCPILOT01","DD","CDISC013",1,"1","PRCDTH","Primary Cause of Death","MYOCARDIAL INFARCTION","MYOCARDIAL INFARCTION","TREATMENT","2013-08-03",13]
]}}}
}
