{
  "clinicalData":{"studyOID":"cdisc.com/CDISCPILOT01","metaDataVersionOID":"MDV.MSGv2.0.SDTMIG.3.3.SDTM.1.7","itemGroupData": {"IG.EX":{"records":1583,"name":"EX","label":"Exposure","items":[{"OID": "IT.EX.STUDYID", "name":"STUDYID", "label":"Study Identifier", "type":"string"},{"OID": "IT.EX.DOMAIN", "name":"DOMAIN", "label":"Domain Abbreviation", "type":"string"},{"OID": "IT.EX.USUBJID", "name":"USUBJID", "label":"Unique Subject Identifier", "type":"string"},{"OID": "IT.EX.SPDEVID", "name":"SPDEVID", "label":"Sponsor Device Identifier", "type":"string"},{"OID": "IT.EX.EXSEQ", "name":"EXSEQ", "label":"Sequence Number", "type":"integer"},{"OID": "IT.EX.EXTRT", "name":"EXTRT", "label":"Name of Treatment", "type":"string"},{"OID": "IT.EX.EXDOSE", "name":"EXDOSE", "label":"Dose", "type":"integer"},{"OID": "IT.EX.EXDOSU", "name":"EXDOSU", "label":"Dose Units", "type":"string"},{"OID": "IT.EX.EXDOSFRM", "name":"EXDOSFRM", "label":"Dose Form", "type":"string"},{"OID": "IT.EX.EXDOSFRQ", "name":"EXDOSFRQ", "label":"Dosing Frequency per Interval", "type":"string"},{"OID": "IT.EX.EXROUTE", "name":"EXROUTE", "label":"Route of Administration", "type":"string"},{"OID": "IT.EX.EXLOT", "name":"EXLOT", "label":"Lot Number", "type":"string"},{"OID": "IT.EX.EPOCH", "name":"EPOCH", "label":"Epoch", "type":"string"},{"OID": "IT.EX.EXSTDTC", "name":"EXSTDTC", "label":"Start Date/Time of Treatment", "type":"string"},{"OID": "IT.EX.EXENDTC", "name":"EXENDTC", "label":"End Date/Time of Treatment", "type":"string"},{"OID": "IT.EX.EXSTDY", "name":"EXSTDY", "label":"Study Day of Start of Treatment", "type":"integer"},{"OID": "IT.EX.EXENDY", "name":"EXENDY", "label":"Study Day of End of Treatment", "type":"integer"}],"itemData": [
["CDISCPILOT01","EX","CDISC001","DEV0001",1,"ZANOMALINE",54,"mg","INJECTION","QD","SUBCUTANEOUS","SDS580-359","TREATMENT","2012-11-30","2012-11-30",1,1],
["CDISCPILOT01","EX","CDISC001","DEV0001",2,"ZANOMALINE",54,"mg","INJECTION","QD","SUBCUTANEOUS","SDS580-359","TREATMENT","2012-12-01","2012-12-01",2,2],
["CDISCPILOT01","EX","CDISC001","DEV0001",3,"ZANOMALINE",54,"mg","INJECTION","QD","SUBCUTANEOUS","SDS580-359","TREATMENT","2012-12-02","2012-12-02",3,3],
["CDISCPILOT01","EX","CDISC001","DEV0001",4,"ZANOMALINE",54,"mg","INJECTION","QD","SUBCUTANEOUS","SDS580-359","TREATMENT","2012-12-03","2012-12-03",4,4],
["CDISCPILOT01","EX","CDISC001","DEV0001",5,"ZANOMALINE",54,"mg","INJECTION","QD","SUBCUTANEOUS","SDS580-359","TREATMENT","2012-12-04","2012-12-04",5,5],
["CDISCPILOT01","EX","CDISC001","DEV0001",6,"ZANOMALINE",54,"mg","INJECTION","QD","SUBCUTANEOUS","SDS580-359","TREATMENT","2012-12-05","2012-12-05",6,6],
["CDISCPILOT01","EX","CDISC001","DEV0001",7,"ZANOMALINE",54,"mg","INJECTION","QD","SUBCUTANEOUS","SDS580-359","TREATMENT","2012-12-06","2012-12-06",7,7],
["CDISCPILOT01","EX","CDISC001","DEV0001",8,"ZANOMALINE",54,"mg","INJECTION","QD","SUBCUTANEOUS","SDS580-359","TREATMENT","2012-12-07","2012-12-07",8,8],
["CDISCPILOT01","EX","CDISC001","DEV0001",9,"ZANOMALINE",54,"mg","INJECTION","QD","SUBCUTANEOUS","SDS580-359","TREATMENT","2012-12-08","2012-12-08",9,9],
["CDISCPILOT01","EX","CDISC001","DEV0001",10,"ZANOMALINE",54,"mg","INJECTION","QD","SUBCUTANEOUS","SDS580-359","TREATMENT","2012-12-09","2012-12-09",10,10],
["CDISCPILOT01","EX","CDISC001","DEV0001",11,"ZANOMALINE",54,"mg","INJECTION","QD","SUBCUTANEOUS","SDS580-359","TREATMENT","2012-12-10","2012-12-10",11,11],
["CDISCPILOT01","EX","CDISC001","DEV0001",12,"ZANOMALINE",54,"mg","INJECTION","QD","SUBCUTANEOUS","SDS580-359","TREATMENT","2012-12-11","2012-12-11",12,12],
["CDISCPILOT01","EX","CDISC001","DEV0001",13,"ZANOMALINE",54,"mg","INJECTION","QD","SUBCUTANEOUS","SDS580-359","TREATMENT","2012-12-12","2012-12-12",13,13],
["CDISCPILOT01","EX","CDISC001","DEV0001",14,"ZANOMALINE",54,"mg","INJECTION","QD","SUBCUTANEOUS","SDS580-359","TREATMENT","2012-12-13","2012-12-13",14,14],
["CDISCPILOT01","EX","CDISC001","DEV0001",15,"ZANOMALINE",54,"mg","INJECTION","QD","SUBCUTANEOUS","SDS580-359","TREATMENT","2012-12-14","2012-12-14",15,15],
["CDISCPILOT01","EX","CDISC001","DEV0001",16,"ZANOMALINE",54,"mg","INJECTION","QD","SUBCUTANEOUS","SDS580-359","TREATMENT","2012-12-15","2012-12-15",16,16],
["CDISCPILOT01","EX","CDISC001","DEV0001",17,"ZANOMALINE",54,"mg","INJECTION","QD","SUBCUTANEOUS","SDS580-359","TREATMENT","2012-12-16","2012-12-16",17,17],
["CDISCPILOT01","EX","CDISC001","DEV0001",18,"ZANOMALINE",54,"mg","INJECTION","QD","SUBCUTANEOUS","SDS580-359","TREATMENT","2012-12-17","2012-12-17",18,18],
["CDISCPILOT01","EX","CDISC001","DEV0001",19,"ZANOMALINE",54,"mg","INJECTION","QD","SUBCUTANEOUS","SDS580-359","TREATMENT","2012-12-18","2012-12-18",19,19],
["CDISCPILOT01","EX","CDISC001","DEV0001",20,"ZANOMALINE",54,"mg","INJECTION","QD","SUBCUTANEOUS","SDS580-359","TREATMENT","2012-12-19","2012-12-19",20,20],
["CDISCPILOT01","EX","CDISC001","DEV0001",21,"ZANOMALINE",54,"mg","INJECTION","QD","SUBCUTANEOUS","SDS580-359","TREATMENT","2012-12-20","2012-12-20",21,21],
["CDISCPILOT01","EX","CDISC001","DEV0001",22,"ZANOMALINE",54,"mg","INJECTION","QD","SUBCUTANEOUS","SDS580-359","TREATMENT","2012-12-21","2012-12-21",22,22],
["CDISCPILOT01","EX","CDISC001","DEV0001",23,"ZANOMALINE",54,"mg","INJECTION","QD","SUBCUTANEOUS","SDS580-359","TREATMENT","2012-12-22","2012-12-22",23,23],
["CDISCPILOT01","EX","CDISC001","DEV0001",24,"ZANOMALINE",54,"mg","INJECTION","QD","SUBCUTANEOUS","SDS580-359","TREATMENT","2012-12-23","2012-12-23",24,24],
["CDISCPILOT01","EX","CDISC001","DEV0001",25,"ZANOMALINE",54,"mg","INJECTION","QD","SUBCUTANEOUS","SDS580-359","TREATMENT","2012-12-24","2012-12-24",25,25],
["CDISCPILOT01","EX","CDISC001","DEV0001",26,"ZANOMALINE",54,"mg","INJECTION","QD","SUBCUTANEOUS","SDS580-359","TREATMENT","2012-12-25","2012-12-25",26,26],
["CDISCPILOT01","EX","CDISC001","DEV0001",27,"ZANOMALINE",54,"mg","INJECTION","QD","SUBCUTANEOUS","SDS580-359","TREATMENT","2012-12-26","2012-12-26",27,27],
["CDISCPILOT01","EX","CDISC001","DEV0001",28,"ZANOMALINE",54,"mg","INJECTION","QD","SUBCUTANEOUS","SDS580-359","TREATMENT","2012-12-27","2012-12-27",28,28],
["CDISCPILOT01","EX","CDISC001","DEV0001",29,"ZANOMALINE",54,"mg","INJECTION","QD","SUBCUTANEOUS","SDS580-359","TREATMENT","2012-12-28","2012-12-28",29,29],
["CDISCPILOT01","EX","CDISC001","DEV0001",30,"ZANOMALINE",54,"mg","INJECTION","QD","SUBCUTANEOUS","SDS580-359","TREATMENT","2012-12-29","2012-12-29",30,30],
["CDISCPILOT01","EX","CDISC001","DEV0001",31,"ZANOMALINE",54,"mg","INJECTION","QD","SUBCUTANEOUS","SDS580-359","TREATMENT","2012-12-30","2012-12-30",31,31],
["CDISCPILOT01","EX","CDISC001","DEV0001",32,"ZANOMALINE",54,"mg","INJECTION","QD","SUBCUTANEOUS","SDS580-359","TREATMENT","2012-12-31","2012-12-31",32,32],
["CDISCPILOT01","EX","CDISC001","DEV0001",33,"ZANOMALINE",54,"mg","INJECTION","QD","SUBCUTANEOUS","SDS580-359","TREATMENT","2013-01-01","2013-01-01",33,33],
["CDISCPILOT01","EX","CDISC001","DEV0001",34,"ZANOMALINE",54,"mg","INJECTION","QD","SUBCUTANEOUS","SDS580-359","TREATMENT","2013-01-02","2013-01-02",34,34],
["CDISCPILOT01","EX","CDISC001","DEV0001",35,"ZANOMALINE",54,"mg","INJECTION","QD","SUBCUTANEOUS","SDS580-359","TREATMENT","2013-01-03","2013-01-03",35,35],
["CDISCPILOT01","EX","CDISC001","DEV0001",36,"ZANOMALINE",54,"mg","INJECTION","QD","SUBCUTANEOUS","SDS580-359","TREATMENT","2013-01-04","2013-01-04",36,36],
["CDISCPILOT01","EX","CDISC001","DEV0001",37,"ZANOMALINE",54,"mg","INJECTION","QD","SUBCUTANEOUS","SDS580-359","TREATMENT","2013-01-05","2013-01-05",37,37],
["CDISCPILOT01","EX","CDISC001","DEV0001",38,"ZANOMALINE",54,"mg","INJECTION","QD","SUBCUTANEOUS","SDS580-359","TREATMENT","2013-01-06","2013-01-06",38,38],
["CDISCPILOT01","EX","CDISC001","DEV0001",39,"ZANOMALINE",54,"mg","INJECTION","QD","SUBCUTANEOUS","SDS580-359","TREATMENT","2013-01-07","2013-01-07",39,39],
["CDISCPILOT01","EX","CDISC001","DEV0001",40,"ZANOMALINE",54,"mg","INJECTION","QD","SUBCUTANEOUS","SDS580-359","TREATMENT","2013-01-08","2013-01-08",40,40],
["CDISCPILOT01","EX","CDISC001","DEV0001",41,"ZANOMALINE",54,"mg","INJECTION","QD","SUBCUTANEOUS","SDS580-359","TREATMENT","2013-01-09","2013-01-09",41,41],
["CDISCPILOT01","EX","CDISC001","DEV0001",42,"ZANOMALINE",54,"mg","INJECTION","QD","SUBCUTANEOUS","SDS580-359","TREATMENT","2013-01-10","2013-01-10",42,42],
["CDISCPILOT01","EX","CDISC001","DEV0001",43,"ZANOMALINE",54,"mg","INJECTION","QD","SUBCUTANEOUS","SDS580-359","TREATMENT","2013-01-11","2013-01-11",43,43],
["CDISCPILOT01","EX","CDISC001","DEV0001",44,"ZANOMALINE",54,"mg","INJECTION","QD","SUBCUTANEOUS","SDS580-359","TREATMENT","2013-01-12","2013-01-12",44,44],
["CDISCPILOT01","EX","CDISC001","DEV0001",45,"ZANOMALINE",54,"mg","INJECTION","QD","SUBCUTANEOUS","SDS580-359","TREATMENT","2013-01-13","2013-01-13",45,45],
["CDISCPILOT01","EX","CDISC001","DEV0001",46,"ZANOMALINE",54,"mg","INJECTION","QD","SUBCUTANEOUS","SDS580-359","TREATMENT","2013-01-14","2013-01-14",46,46],
["CDISCPILOT01","EX","CDISC001","DEV0001",47,"ZANOMALINE",54,"mg","INJECTION","QD","SUBCUTANEOUS","SDS580-359","TREATMENT","2013-01-15","2013-01-15",47,47],
["CDISCPILOT01","EX","CDISC001","DEV0001",48,"ZANOMALINE",54,"mg","INJECTION","QD","SUBCUTANEOUS","SDS580-359","TREATMENT","2013-01-16","2013-01-16",48,48],
["CDISCPILOT01","EX","CDISC001","DEV0001",49,"ZANOMALINE",54,"mg","INJECTION","QD","SUBCUTANEOUS","SDS580-359","TREATMENT","2013-01-17","2013-01-17",49,49],
["CDISCPILOT01","EX","CDISC001","DEV0001",50,"ZANOMALINE",54,"mg","INJECTION","QD","SUBCUTANEOUS","SDS580-359","TREATMENT","2013-01-18","2013-01-18",50,50],
["CDISCPILOT01","EX","CDISC001","DEV0001",51,"ZANOMALINE",54,"mg","INJECTION","QD","SUBCUTANEOUS","SDS580-359","TREATMENT","2013-01-19","2013-01-19",51,51],
["CDISCPILOT01","EX","CDISC001","DEV0001",52,"ZANOMALINE",54,"mg","INJECTION","QD","SUBCUTANEOUS","SDS580-359","TREATMENT","2013-01-20","2013-01-20",52,52],
["CDISCPILOT01","EX","CDISC001","DEV0001",53,"ZANOMALINE",54,"mg","INJECTION","QD","SUBCUTANEOUS","SDS580-359","TREATMENT","2013-01-21","2013-01-21",53,53],
["CDISCPILOT01","EX","CDISC001","DEV0001",54,"ZANOMALINE",54,"mg","INJECTION","QD","SUBCUTANEOUS","SDS580-359","TREATMENT","2013-01-22","2013-01-22",54,54],
["CDISCPILOT01","EX","CDISC001","DEV0001",55,"ZANOMALINE",54,"mg","INJECTION","QD","SUBCUTANEOUS","SDS580-359","TREATMENT","2013-01-23","2013-01-23",55,55],
["CDISCPILOT01","EX","CDISC002","DEV0002",1,"ZANOMALINE",54,"mg","INJECTION","QD","SUBCUTANEOUS","SDS580-359","TREATMENT","2012-11-15","2012-11-15",1,1],
["CDISCPILOT01","EX","CDISC002","DEV0002",2,"ZANOMALINE",54,"mg","INJECTION","QD","SUBCUTANEOUS","SDS580-359","TREATMENT","2012-11-16","2012-11-16",2,2],
["CDISCPILOT01","EX","CDISC002","DEV0002",3,"ZANOMALINE",54,"mg","INJECTION","QD","SUBCUTANEOUS","SDS580-359","TREATMENT","2012-11-17","2012-11-17",3,3],
["CDISCPILOT01","EX","CDISC002","DEV0002",4,"ZANOMALINE",54,"mg","INJECTION","QD","SUBCUTANEOUS","SDS580-359","TREATMENT","2012-11-18","2012-11-18",4,4],
["CDISCPILOT01","EX","CDISC002","DEV0002",5,"ZANOMALINE",54,"mg","INJECTION","QD","SUBCUTANEOUS","SDS580-359","TREATMENT","2012-11-19","2012-11-19",5,5],
["CDISCPILOT01","EX","CDISC002","DEV0002",6,"ZANOMALINE",54,"mg","INJECTION","QD","SUBCUTANEOUS","SDS580-359","TREATMENT","2012-11-20","2012-11-20",6,6],
["CDISCPILOT01","EX","CDISC002","DEV0002",7,"ZANOMALINE",54,"mg","INJECTION","QD","SUBCUTANEOUS","SDS580-359","TREATMENT","2012-11-21","2012-11-21",7,7],
["CDISCPILOT01","EX","CDISC002","DEV0002",8,"ZANOMALINE",54,"mg","INJECTION","QD","SUBCUTANEOUS","SDS580-359","TREATMENT","2012-11-22","2012-11-22",8,8],
["CDISCPILOT01","EX","CDISC002","DEV0002",9,"ZANOMALINE",54,"mg","INJECTION","QD","SUBCUTANEOUS","SDS580-359","TREATMENT","2012-11-23","2012-11-23",9,9],
["CDISCPILOT01","EX","CDISC002","DEV0002",10,"ZANOMALINE",54,"mg","INJECTION","QD","SUBCUTANEOUS","SDS580-359","TREATMENT","2012-11-24","2012-11-24",10,10],
["CDISCPILOT01","EX","CDISC002","DEV0002",11,"ZANOMALINE",54,"mg","INJECTION","QD","SUBCUTANEOUS","SDS580-359","TREATMENT","2012-11-25","2012-11-25",11,11],
["CDISCPILOT01","EX","CDISC002","DEV0002",12,"ZANOMALINE",54,"mg","INJECTION","QD","SUBCUTANEOUS","SDS580-359","TREATMENT","2012-11-26","2012-11-26",12,12],
["CDISCPILOT01","EX","CDISC002","DEV0002",13,"ZANOMALINE",54,"mg","INJECTION","QD","SUBCUTANEOUS","SDS580-359","TREATMENT","2012-11-27","2012-11-27",13,13],
["CDISCPILOT01","EX","CDISC002","DEV0002",14,"ZANOMALINE",54,"mg","INJECTION","QD","SUBCUTANEOUS","SDS580-359","TREATMENT","2012-11-28","2012-11-28",14,14],
["CDISCPILOT01","EX","CDISC002","DEV0002",15,"ZANOMALINE",54,"mg","INJECTION","QD","SUBCUTANEOUS","SDS580-359","TREATMENT","2012-11-29","2012-11-29",15,15],
["CDISCPILOT01","EX","CDISC002","DEV0002",16,"ZANOMALINE",54,"mg","INJECTION","QD","SUBCUTANEOUS","SDS580-359","TREATMENT","2012-11-30","2012-11-30",16,16],
["CDISCPILOT01","EX","CDISC002","DEV0002",17,"ZANOMALINE",54,"mg","INJECTION","QD","SUBCUTANEOUS","SDS580-359","TREATMENT","2012-12-01","2012-12-01",17,17],
["CDISCPILOT01","EX","CDISC002","DEV0002",18,"ZANOMALINE",54,"mg","INJECTION","QD","SUBCUTANEOUS","SDS580-359","TREATMENT","2012-12-02","2012-12-02",18,18],
["CDISCPILOT01","EX","CDISC002","DEV0002",19,"ZANOMALINE",54,"mg","INJECTION","QD","SUBCUTANEOUS","SDS580-359","TREATMENT","2012-12-03","2012-12-03",19,19],
["CDISCPILOT01","EX","CDISC002","DEV0002",20,"ZANOMALINE",54,"mg","INJECTION","QD","SUBCUTANEOUS","SDS580-359","TREATMENT","2012-12-04","2012-12-04",20,20],
["CDISCPILOT01","EX","CDISC002","DEV0002",21,"ZANOMALINE",54,"mg","INJECTION","QD","SUBCUTANEOUS","SDS580-359","TREATMENT","2012-12-05","2012-12-05",21,21],
["CDISCPILOT01","EX","CDISC002","DEV0002",22,"ZANOMALINE",54,"mg","INJECTION","QD","SUBCUTANEOUS","SDS580-359","TREATMENT","2012-12-06","2012-12-06",22,22],
["CDISCPILOT01","EX","CDISC002","DEV0002",23,"ZANOMALINE",54,"mg","INJECTION","QD","SUBCUTANEOUS","SDS580-359","TREATMENT","2012-12-07","2012-12-07",23,23],
["CDISCPILOT01","EX","CDISC002","DEV0002",24,"ZANOMALINE",54,"mg","INJECTION","QD","SUBCUTANEOUS","SDS580-359","TREATMENT","2012-12-08","2012-12-08",24,24],
["CDISCPILOT01","EX","CDISC002","DEV0002",25,"ZANOMALINE",54,"mg","INJECTION","QD","SUBCUTANEOUS","SDS580-359","TREATMENT","2012-12-09","2012-12-09",25,25],
["CDISCPILOT01","EX","CDISC002","DEV0002",26,"ZANOMALINE",54,"mg","INJECTION","QD","SUBCUTANEOUS","SDS580-359","TREATMENT","2012-12-10","2012-12-10",26,26],
["CDISCPILOT01","EX","CDISC002","DEV0002",27,"ZANOMALINE",54,"mg","INJECTION","QD","SUBCUTANEOUS","SDS580-359","TREATMENT","2012-12-11","2012-12-11",27,27],
["CDISCPILOT01","EX","CDISC002","DEV0002",28,"ZANOMALINE",54,"mg","INJECTION","QD","SUBCUTANEOUS","SDS580-359","TREATMENT","2012-12-12","2012-12-12",28,28],
["CDISCPILOT01","EX","CDISC002","DEV0002",29,"ZANOMALINE",54,"mg","INJECTION","QD","SUBCUTANEOUS","SDS580-359","TREATMENT","2012-12-13","2012-12-13",29,29],
["CDISCPILOT01","EX","CDISC002","DEV0002",30,"ZANOMALINE",54,"mg","INJECTION","QD","SUBCUTANEOUS","SDS580-359","TREATMENT","2012-12-14","2012-12-14",30,30],
["CDISCPILOT01","EX","CDISC002","DEV0002",31,"ZANOMALINE",54,"mg","INJECTION","QD","SUBCUTANEOUS","SDS580-359","TREATMENT","2012-12-15","2012-12-15",31,31],
["CDISCPILOT01","EX","CDISC002","DEV0002",32,"ZANOMALINE",54,"mg","INJECTION","QD","SUBCUTANEOUS","SDS580-359","TREATMENT","2012-12-16","2012-12-16",32,32],
["CDISCPILOT01","EX","CDISC002","DEV0002",33,"ZANOMALINE",54,"mg","INJECTION","QD","SUBCUTANEOUS","SDS580-359","TREATMENT","2012-12-17","2012-12-17",33,33],
["CDISCPILOT01","EX","CDISC002","DEV0002",34,"ZANOMALINE",54,"mg","INJECTION","QD","SUBCUTANEOUS","SDS580-359","TREATMENT","2012-12-18","2012-12-18",34,34],
["CDISCPILOT01","EX","CDISC002","DEV0002",35,"ZANOMALINE",54,"mg","INJECTION","QD","SUBCUTANEOUS","SDS580-359","TREATMENT","2012-12-19","2012-12-19",35,35],
["CDISCPILOT01","EX","CDISC002","DEV0002",36,"ZANOMALINE",54,"mg","INJECTION","QD","SUBCUTANEOUS","SDS580-359","TREATMENT","2012-12-20","2012-12-20",36,36],
["CDISCPILOT01","EX","CDISC002","DEV0002",37,"ZANOMALINE",54,"mg","INJECTION","QD","SUBCUTANEOUS","SDS580-359","TREATMENT","2012-12-21","2012-12-21",37,37],
["CDISCPILOT01","EX","CDISC002","DEV0002",38,"ZANOMALINE",54,"mg","INJECTION","QD","SUBCUTANEOUS","SDS580-359","TREATMENT","2012-12-22","2012-12-22",38,38],
["CDISCPILOT01","EX","CDISC002","DEV0002",39,"ZANOMALINE",54,"mg","INJECTION","QD","SUBCUTANEOUS","SDS580-359","TREATMENT","2012-12-23","2012-12-23",39,39],
["CDISCPILOT01","EX","CDISC002","DEV0002",40,"ZANOMALINE",54,"mg","INJECTION","QD","SUBCUTANEOUS","SDS580-359","TREATMENT","2012-12-24","2012-12-24",40,40],
["CDISCPILOT01","EX","CDISC002","DEV0002",41,"ZANOMALINE",54,"mg","INJECTION","QD","SUBCUTANEOUS","SDS580-359","TREATMENT","2012-12-25","2012-12-25",41,41],
["CDISCPILOT01","EX","CDISC002","DEV0002",42,"ZANOMALINE",54,"mg","INJECTION","QD","SUBCUTANEOUS","SDS580-359","TREATMENT","2012-12-26","2012-12-26",42,42],
["CDISCPILOT01","EX","CDISC002","DEV0002",43,"ZANOMALINE",54,"mg","INJECTION","QD","SUBCUTANEOUS","SDS580-359","TREATMENT","2012-12-27","2012-12-27",43,43],
["CDISCPILOT01","EX","CDISC002","DEV0002",44,"ZANOMALINE",54,"mg","INJECTION","QD","SUBCUTANEOUS","SDS580-359","TREATMENT","2012-12-28","2012-12-28",44,44],
["CDISCPILOT01","EX","CDISC002","DEV0002",45,"ZANOMALINE",54,"mg","INJECTION","QD","SUBCUTANEOUS","SDS580-359","TREATMENT","2012-12-29","2012-12-29",45,45],
["CDISCPILOT01","EX","CDISC002","DEV0002",46,"ZANOMALINE",54,"mg","INJECTION","QD","SUBCUTANEOUS","SDS580-359","TREATMENT","2012-12-30","2012-12-30",46,46],
["CDISCPILOT01","EX","CDISC002","DEV0002",47,"ZANOMALINE",54,"mg","INJECTION","QD","SUBCUTANEOUS","SDS580-359","TREATMENT","2012-12-31","2012-12-31",47,47],
["CDISCPILOT01","EX","CDISC002","DEV0002",48,"ZANOMALINE",54,"mg","INJECTION","QD","SUBCUTANEOUS","SDS580-359","TREATMENT","2013-01-01","2013-01-01",48,48],
["CDISCPILOT01","EX","CDISC002","DEV0002",49,"ZANOMALINE",54,"mg","INJECTION","QD","SUBCUTANEOUS","SDS580-359","TREATMENT","2013-01-02","2013-01-02",49,49],
["CDISCPILOT01","EX","CDISC002","DEV0002",50,"ZANOMALINE",54,"mg","INJECTION","QD","SUBCUTANEOUS","SDS580-359","TREATMENT","2013-01-03","2013-01-03",50,50],
["CDISCPILOT01","EX","CDISC002","DEV0002",51,"ZANOMALINE",54,"mg","INJECTION","QD","SUBCUTANEOUS","SDS580-359","TREATMENT","2013-01-04","2013-01-04",51,51],
["CDISCPILOT01","EX","CDISC002","DEV0002",52,"ZANOMALINE",54,"mg","INJECTION","QD","SUBCUTANEOUS","SDS580-359","TREATMENT","2013-01-05","2013-01-05",52,52],
["CDISCPILOT01","EX","CDISC002","DEV0002",53,"ZANOMALINE",54,"mg","INJECTION","QD","SUBCUTANEOUS","SDS580-359","TREATMENT","2013-01-06","2013-01-06",53,53],
["CDISCPILOT01","EX","CDISC002","DEV0002",54,"ZANOMALINE",54,"mg","INJECTION","QD","SUBCUTANEOUS","SDS580-359","TREATMENT","2013-01-07","2013-01-07",54,54],
["CDISCPILOT01","EX","CDISC002","DEV0002",55,"ZANOMALINE",54,"mg","INJECTION","QD","SUBCUTANEOUS","SDS580-359","TREATMENT","2013-01-08","2013-01-08",55,55],
["CDISCPILOT01","EX","CDISC002","DEV0002",56,"ZANOMALINE",54,"mg","INJECTION","QD","SUBCUTANEOUS","SDS580-359","TREATMENT","2013-01-09","2013-01-09",56,56],
["CDISCPILOT01","EX","CDISC002","DEV0002",57,"ZANOMALINE",54,"mg","INJECTION","QD","SUBCUTANEOUS","SDS580-359","TREATMENT","2013-01-10","2013-01-10",57,57],
["CDISCPILOT01","EX","CDISC002","DEV0002",58,"ZANOMALINE",54,"mg","INJECTION","QD","SUBCUTANEOUS","SDS580-359","TREATMENT","2013-01-11","2013-01-11",58,58],
["CDISCPILOT01","EX","CDISC002","DEV0002",59,"ZANOMALINE",54,"mg","INJECTION","QD","SUBCUTANEOUS","SDS580-359","TREATMENT","2013-01-12","2013-01-12",59,59],
["CDISCPILOT01","EX","CDISC003","DEV0003",1,"ZANOMALINE",54,"mg","INJECTION","QD","SUBCUTANEOUS","SDS580-359","TREATMENT","2013-08-29","2013-08-29",1,1],
["CDISCPILOT01","EX","CDISC003","DEV0003",2,"ZANOMALINE",54,"mg","INJECTION","QD","SUBCUTANEOUS","SDS580-359","TREATMENT","2013-08-30","2013-08-30",2,2],
["CDISCPILOT01","EX","CDISC003","DEV0003",3,"ZANOMALINE",54,"mg","INJECTION","QD","SUBCUTANEOUS","SDS580-359","TREATMENT","2013-08-31","2013-08-31",3,3],
["CDISCPILOT01","EX","CDISC003","DEV0003",4,"ZANOMALINE",54,"mg","INJECTION","QD","SUBCUTANEOUS","SDS580-359","TREATMENT","2013-09-01","2013-09-01",4,4],
["CDISCPILOT01","EX","CDISC003","DEV0003",5,"ZANOMALINE",54,"mg","INJECTION","QD","SUBCUTANEOUS","SDS580-359","TREATMENT","2013-09-02","2013-09-02",5,5],
["CDISCPILOT01","EX","CDISC003","DEV0003",6,"ZANOMALINE",54,"mg","INJECTION","QD","SUBCUTANEOUS","SDS580-359","TREATMENT","2013-09-03","2013-09-03",6,6],
["CDISCPILOT01","EX","CDISC003","DEV0003",7,"ZANOMALINE",54,"mg","INJECTION","QD","SUBCUTANEOUS","SDS580-359","TREATMENT","2013-09-04","2013-09-04",7,7],
["CDISCPILOT01","EX","CDISC003","DEV0003",8,"ZANOMALINE",54,"mg","INJECTION","QD","SUBCUTANEOUS","SDS580-359","TREATMENT","2013-09-05","2013-09-05",8,8],
["CDISCPILOT01","EX","CDISC003","DEV0003",9,"ZANOMALINE",54,"mg","INJECTION","QD","SUBCUTANEOUS","SDS580-359","TREATMENT","2013-09-06","2013-09-06",9,9],
["CDISCPILOT01","EX","CDISC003","DEV0003",10,"ZANOMALINE",54,"mg","INJECTION","QD","SUBCUTANEOUS","SDS580-359","TREATMENT","2013-09-07","2013-09-07",10,10],
["CDISCPILOT01","EX","CDISC003","DEV0003",11,"ZANOMALINE",54,"mg","INJECTION","QD","SUBCUTANEOUS","SDS580-359","TREATMENT","2013-09-08","2013-09-08",11,11],
["CDISCPILOT01","EX","CDISC003","DEV0003",12,"ZANOMALINE",54,"mg","INJECTION","QD","SUBCUTANEOUS","SDS580-359","TREATMENT","2013-09-09","2013-09-09",12,12],
["CDISCPILOT01","EX","CDISC003","DEV0003",13,"ZANOMALINE",54,"mg","INJECTION","QD","SUBCUTANEOUS","SDS580-359","TREATMENT","2013-09-10","2013-09-10",13,13],
["CDISCPILOT01","EX","CDISC003","DEV0003",14,"ZANOMALINE",54,"mg","INJECTION","QD","SUBCUTANEOUS","SDS580-359","TREATMENT","2013-09-11","2013-09-11",14,14],
["CDISCPILOT01","EX","CDISC003","DEV0003",15,"ZANOMALINE",54,"mg","INJECTION","QD","SUBCUTANEOUS","SDS580-359","TREATMENT","2013-09-12","2013-09-12",15,15],
["CDISCPILOT01","EX","CDISC003","DEV0003",16,"ZANOMALINE",54,"mg","INJECTION","QD","SUBCUTANEOUS","SDS580-359","TREATMENT","2013-09-13","2013-09-13",16,16],
["CDISCPILOT01","EX","CDISC003","DEV0003",17,"ZANOMALINE",54,"mg","INJECTION","QD","SUBCUTANEOUS","SDS580-359","TREATMENT","2013-09-14","2013-09-14",17,17],
["CDISCPILOT01","EX","CDISC003","DEV0003",18,"ZANOMALINE",54,"mg","INJECTION","QD","SUBCUTANEOUS","SDS580-359","TREATMENT","2013-09-15","2013-09-15",18,18],
["CDISCPILOT01","EX","CDISC003","DEV0003",19,"ZANOMALINE",81,"mg","INJECTION","QD","SUBCUTANEOUS","SDS580-359","TREATMENT","2013-09-16","2013-09-16",19,19],
["CDISCPILOT01","EX","CDISC003","DEV0003",20,"ZANOMALINE",81,"mg","INJECTION","QD","SUBCUTANEOUS","SDS580-359","TREATMENT","2013-09-17","2013-09-17",20,20],
["CDISCPILOT01","EX","CDISC003","DEV0003",21,"ZANOMALINE",81,"mg","INJECTION","QD","SUBCUTANEOUS","SDS580-359","TREATMENT","2013-09-18","2013-09-18",21,21],
["CDISCPILOT01","EX","CDISC003","DEV0003",22,"ZANOMALINE",81,"mg","INJECTION","QD","SUBCUTANEOUS","SDS580-359","TREATMENT","2013-09-19","2013-09-19",22,22],
["CDISCPILOT01","EX","CDISC003","DEV0003",23,"ZANOMALINE",81,"mg","INJECTION","QD","SUBCUTANEOUS","SDS580-359","TREATMENT","2013-09-20","2013-09-20",23,23],
["CDISCPILOT01","EX","CDISC003","DEV0003",24,"ZANOMALINE",81,"mg","INJECTION","QD","SUBCUTANEOUS","SDS580-359","TREATMENT","2013-09-21","2013-09-21",24,24],
["CDISCPILOT01","EX","CDISC003","DEV0003",25,"ZANOMALINE",81,"mg","INJECTION","QD","SUBCUTANEOUS","SDS580-359","TREATMENT","2013-09-22","2013-09-22",25,25],
["CDISCPILOT01","EX","CDISC003","DEV0003",26,"ZANOMALINE",81,"mg","INJECTION","QD","SUBCUTANEOUS","SDS580-359","TREATMENT","2013-09-23","2013-09-23",26,26],
["CDISCPILOT01","EX","CDISC003","DEV0003",27,"ZANOMALINE",81,"mg","INJECTION","QD","SUBCUTANEOUS","SDS580-359","TREATMENT","2013-09-24","2013-09-24",27,27],
["CDISCPILOT01","EX","CDISC003","DEV0003",28,"ZANOMALINE",81,"mg","INJECTION","QD","SUBCUTANEOUS","SDS580-359","TREATMENT","2013-09-25","2013-09-25",28,28],
["CDISCPILOT01","EX","CDISC003","DEV0003",29,"ZANOMALINE",81,"mg","INJECTION","QD","SUBCUTANEOUS","SDS580-359","TREATMENT","2013-09-26","2013-09-26",29,29],
["CDISCPILOT01","EX","CDISC003","DEV0003",30,"ZANOMALINE",81,"mg","INJECTION","QD","SUBCUTANEOUS","SDS580-359","TREATMENT","2013-09-27","2013-09-27",30,30],
["CDISCPILOT01","EX","CDISC003","DEV0003",31,"ZANOMALINE",81,"mg","INJECTION","QD","SUBCUTANEOUS","SDS580-359","TREATMENT","2013-09-28","2013-09-28",31,31],
["CDISCPILOT01","EX","CDISC003","DEV0003",32,"ZANOMALINE",81,"mg","INJECTION","QD","SUBCUTANEOUS","SDS580-359","TREATMENT","2013-09-29","2013-09-29",32,32],
["CDISCPILOT01","EX","CDISC003","DEV0003",33,"ZANOMALINE",81,"mg","INJECTION","QD","SUBCUTANEOUS","SDS580-359","TREATMENT","2013-09-30","2013-09-30",33,33],
["CDISCPILOT01","EX","CDISC003","DEV0003",34,"ZANOMALINE",81,"mg","INJECTION","QD","SUBCUTANEOUS","SDS580-359","TREATMENT","2013-10-01","2013-10-01",34,34],
["CDISCPILOT01","EX","CDISC003","DEV0003",35,"ZANOMALINE",81,"mg","INJECTION","QD","SUBCUTANEOUS","SDS580-359","TREATMENT","2013-10-02","2013-10-02",35,35],
["CDISCPILOT01","EX","CDISC003","DEV0003",36,"ZANOMALINE",81,"mg","INJECTION","QD","SUBCUTANEOUS","SDS580-359","TREATMENT","2013-10-03","2013-10-03",36,36],
["CDISCPILOT01","EX","CDISC003","DEV0003",37,"ZANOMALINE",81,"mg","INJECTION","QD","SUBCUTANEOUS","SDS580-359","TREATMENT","2013-10-04","2013-10-04",37,37],
["CDISCPILOT01","EX","CDISC003","DEV0003",38,"ZANOMALINE",81,"mg","INJECTION","QD","SUBCUTANEOUS","SDS580-359","TREATMENT","2013-10-05","2013-10-05",38,38],
["CDISCPILOT01","EX","CDISC003","DEV0003",39,"ZANOMALINE",81,"mg","INJECTION","QD","SUBCUTANEOUS","SDS580-359","TREATMENT","2013-10-06","2013-10-06",39,39],
["CDISCPILOT01","EX","CDISC003","DEV0003",40,"ZANOMALINE",81,"mg","INJECTION","QD","SUBCUTANEOUS","SDS580-359","TREATMENT","2013-10-07","2013-10-07",40,40],
["CDISCPILOT01","EX","CDISC003","DEV0003",41,"ZANOMALINE",81,"mg","INJECTION","QD","SUBCUTANEOUS","SDS580-359","TREATMENT","2013-10-08","2013-10-08",41,41],
["CDISCPILOT01","EX","CDISC003","DEV0003",42,"ZANOMALINE",81,"mg","INJECTION","QD","SUBCUTANEOUS","SDS580-359","TREATMENT","2013-10-09","2013-10-09",42,42],
["CDISCPILOT01","EX","CDISC003","DEV0003",43,"ZANOMALINE",81,"mg","INJECTION","QD","SUBCUTANEOUS","SDS580-359","TREATMENT","2013-10-10","2013-10-10",43,43],
["CDISCPILOT01","EX","CDISC003","DEV0003",44,"ZANOMALINE",81,"mg","INJECTION","QD","SUBCUTANEOUS","SDS580-359","TREATMENT","2013-10-11","2013-10-11",44,44],
["CDISCPILOT01","EX","CDISC003","DEV0003",45,"ZANOMALINE",81,"mg","INJECTION","QD","SUBCUTANEOUS","SDS580-359","TREATMENT","2013-10-12","2013-10-12",45,45],
["CDISCPILOT01","EX","CDISC003","DEV0003",46,"ZANOMALINE",81,"mg","INJECTION","QD","SUBCUTANEOUS","SDS580-359","TREATMENT","2013-10-13","2013-10-13",46,46],
["CDISCPILOT01","EX","CDISC003","DEV0003",47,"ZANOMALINE",81,"mg","INJECTION","QD","SUBCUTANEOUS","SDS580-359","TREATMENT","2013-10-14","2013-10-14",47,47],
["CDISCPILOT01","EX","CDISC003","DEV0003",48,"ZANOMALINE",81,"mg","INJECTION","QD","SUBCUTANEOUS","SDS580-359","TREATMENT","2013-10-15","2013-10-15",48,48],
["CDISCPILOT01","EX","CDISC003","DEV0003",49,"ZANOMALINE",81,"mg","INJECTION","QD","SUBCUTANEOUS","SDS580-359","TREATMENT","2013-10-16","2013-10-16",49,49],
["CDISCPILOT01","EX","CDISC003","DEV0003",50,"ZANOMALINE",81,"mg","INJECTION","QD","SUBCUTANEOUS","SDS580-359","TREATMENT","2013-10-17","2013-10-17",50,50],
["CDISCPILOT01","EX","CDISC003","DEV0003",51,"ZANOMALINE",81,"mg","INJECTION","QD","SUBCUTANEOUS","SDS580-359","TREATMENT","2013-10-18","2013-10-18",51,51],
["CDISCPILOT01","EX","CDISC003","DEV0003",52,"ZANOMALINE",81,"mg","INJECTION","QD","SUBCUTANEOUS","SDS580-359","TREATMENT","2013-10-19","2013-10-19",52,52],
["CDISCPILOT01","EX","CDISC003","DEV0003",53,"ZANOMALINE",81,"mg","INJECTION","QD","SUBCUTANEOUS","SDS580-359","TREATMENT","2013-10-20","2013-10-20",53,53],
["CDISCPILOT01","EX","CDISC003","DEV0003",54,"ZANOMALINE",81,"mg","INJECTION","QD","SUBCUTANEOUS","SDS580-359","TREATMENT","2013-10-21","2013-10-21",54,54],
["CDISCPILOT01","EX","CDISC003","DEV0003",55,"ZANOMALINE",81,"mg","INJECTION","QD","SUBCUTANEOUS","SDS580-359","TREATMENT","2013-10-22","2013-10-22",55,55],
["CDISCPILOT01","EX","CDISC003","DEV0003",56,"ZANOMALINE",81,"mg","INJECTION","QD","SUBCUTANEOUS","SDS580-359","TREATMENT","2013-10-23","2013-10-23",56,56],
["CDISCPILOT01","EX","CDISC003","DEV0003",57,"ZANOMALINE",81,"mg","INJECTION","QD","SUBCUTANEOUS","SDS580-359","TREATMENT","2013-10-24","2013-10-24",57,57],
["CDISCPILOT01","EX","CDISC003","DEV0003",58,"ZANOMALINE",81,"mg","INJECTION","QD","SUBCUTANEOUS","SDS580-359","TREATMENT","2013-10-25","2013-10-25",58,58],
["CDISCPILOT01","EX","CDISC003","DEV0003",59,"ZANOMALINE",81,"mg","INJECTION","QD","SUBCUTANEOUS","SDS580-359","TREATMENT","2013-10-26","2013-10-26",59,59],
["CDISCPILOT01","EX","CDISC003","DEV0003",60,"ZANOMALINE",81,"mg","INJECTION","QD","SUBCUTANEOUS","SDS580-359","TREATMENT","2013-10-27","2013-10-27",60,60],
["CDISCPILOT01","EX","CDISC003","DEV0003",61,"ZANOMALINE",81,"mg","INJECTION","QD","SUBCUTANEOUS","SDS580-359","TREATMENT","2013-10-28","2013-10-28",61,61],
["CDISCPILOT01","EX","CDISC003","DEV0003",62,"ZANOMALINE",81,"mg","INJECTION","QD","SUBCUTANEOUS","SDS580-359","TREATMENT","2013-10-29","2013-10-29",62,62],
["CDISCPILOT01","EX","CDISC003","DEV0003",63,"ZANOMALINE",81,"mg","INJECTION","QD","SUBCUTANEOUS","SDS580-359","TREATMENT","2013-10-30","2013-10-30",63,63],
["CDISCPILOT01","EX","CDISC003","DEV0003",64,"ZANOMALINE",81,"mg","INJECTION","QD","SUBCUTANEOUS","SDS580-359","TREATMENT","2013-10-31","2013-10-31",64,64],
["CDISCPILOT01","EX","CDISC003","DEV0003",65,"ZANOMALINE",81,"mg","INJECTION","QD","SUBCUTANEOUS","SDS580-359","TREATMENT","2013-11-01","2013-11-01",65,65],
["CDISCPILOT01","EX","CDISC003","DEV0003",66,"ZANOMALINE",81,"mg","INJECTION","QD","SUBCUTANEOUS","SDS580-359","TREATMENT","2013-11-02","2013-11-02",66,66],
["CDISCPILOT01","EX","CDISC003","DEV0003",67,"ZANOMALINE",81,"mg","INJECTION","QD","SUBCUTANEOUS","SDS580-359","TREATMENT","2013-11-03","2013-11-03",67,67],
["CDISCPILOT01","EX","CDISC003","DEV0003",68,"ZANOMALINE",81,"mg","INJECTION","QD","SUBCUTANEOUS","SDS580-359","TREATMENT","2013-11-04","2013-11-04",68,68],
["CDISCPILOT01","EX","CDISC003","DEV0003",69,"ZANOMALINE",81,"mg","INJECTION","QD","SUBCUTANEOUS","SDS580-359","TREATMENT","2013-11-05","2013-11-05",69,69],
["CDISCPILOT01","EX","CDISC004","DEV0004",1,"PLACEBO",0,"mg","INJECTION","QD","SUBCUTANEOUS","SDS580-485","TREATMENT","2013-10-08","2013-10-08",1,1],
["CDISCPILOT01","EX","CDISC004","DEV0004",2,"PLACEBO",0,"mg","INJECTION","QD","SUBCUTANEOUS","SDS580-485","TREATMENT","2013-10-09","2013-10-09",2,2],
["CDISCPILOT01","EX","CDISC004","DEV0004",3,"PLACEBO",0,"mg","INJECTION","QD","SUBCUTANEOUS","SDS580-485","TREATMENT","2013-10-10","2013-10-10",3,3],
["CDISCPILOT01","EX","CDISC004","DEV0004",4,"PLACEBO",0,"mg","INJECTION","QD","SUBCUTANEOUS","SDS580-485","TREATMENT","2013-10-11","2013-10-11",4,4],
["CDISCPILOT01","EX","CDISC004","DEV0004",5,"PLACEBO",0,"mg","INJECTION","QD","SUBCUTANEOUS","SDS580-485","TREATMENT","2013-10-12","2013-10-12",5,5],
["CDISCPILOT01","EX","CDISC004","DEV0004",6,"PLACEBO",0,"mg","INJECTION","QD","SUBCUTANEOUS","SDS580-485","TREATMENT","2013-10-13","2013-10-13",6,6],
["CDISCPILOT01","EX","CDISC004","DEV0004",7,"PLACEBO",0,"mg","INJECTION","QD","SUBCUTANEOUS","SDS580-485","TREATMENT","2013-10-14","2013-10-14",7,7],
["CDISCPILOT01","EX","CDISC004","DEV0004",8,"PLACEBO",0,"mg","INJECTION","QD","SUBCUTANEOUS","SDS580-485","TREATMENT","2013-10-15","2013-10-15",8,8],
["CDISCPILOT01","EX","CDISC004","DEV0004",9,"PLACEBO",0,"mg","INJECTION","QD","SUBCUTANEOUS","SDS580-485","TREATMENT","2013-10-16","2013-10-16",9,9],
["CDISCPILOT01","EX","CDISC004","DEV0004",10,"PLACEBO",0,"mg","INJECTION","QD","SUBCUTANEOUS","SDS580-485","TREATMENT","2013-10-17","2013-10-17",10,10],
["CDISCPILOT01","EX","CDISC004","DEV0004",11,"PLACEBO",0,"mg","INJECTION","QD","SUBCUTANEOUS","SDS580-485","TREATMENT","2013-10-18","2013-10-18",11,11],
["CDISCPILOT01","EX","CDISC004","DEV0004",12,"PLACEBO",0,"mg","INJECTION","QD","SUBCUTANEOUS","SDS580-485","TREATMENT","2013-10-19","2013-10-19",12,12],
["CDISCPILOT01","EX","CDISC004","DEV0004",13,"PLACEBO",0,"mg","INJECTION","QD","SUBCUTANEOUS","SDS580-485","TREATMENT","2013-10-20","2013-10-20",13,13],
["CDISCPILOT01","EX","CDISC004","DEV0004",14,"PLACEBO",0,"mg","INJECTION","QD","SUBCUTANEOUS","SDS580-485","TREATMENT","2013-10-21","2013-10-21",14,14],
["CDISCPILOT01","EX","CDISC004","DEV0004",15,"PLACEBO",0,"mg","INJECTION","QD","SUBCUTANEOUS","SDS580-485","TREATMENT","2013-10-22","2013-10-22",15,15],
["CDISCPILOT01","EX","CDISC004","DEV0004",16,"PLACEBO",0,"mg","INJECTION","QD","SUBCUTANEOUS","SDS580-485","TREATMENT","2013-10-23","2013-10-23",16,16],
["CDISCPILOT01","EX","CDISC004","DEV0004",17,"PLACEBO",0,"mg","INJECTION","QD","SUBCUTANEOUS","SDS580-485","TREATMENT","2013-10-24","2013-10-24",17,17],
["CDISCPILOT01","EX","CDISC004","DEV0004",18,"PLACEBO",0,"mg","INJECTION","QD","SUBCUTANEOUS","SDS580-485","TREATMENT","2013-10-25","2013-10-25",18,18],
["CDISCPILOT01","EX","CDISC004","DEV0004",19,"PLACEBO",0,"mg","INJECTION","QD","SUBCUTANEOUS","SDS580-485","TREATMENT","2013-10-26","2013-10-26",19,19],
["CDISCPILOT01","EX","CDISC004","DEV0004",20,"PLACEBO",0,"mg","INJECTION","QD","SUBCUTANEOUS","SDS580-485","TREATMENT","2013-10-27","2013-10-27",20,20],
["CDISCPILOT01","EX","CDISC004","DEV0004",21,"PLACEBO",0,"mg","INJECTION","QD","SUBCUTANEOUS","SDS580-485","TREATMENT","2013-10-28","2013-10-28",21,21],
["CDISCPILOT01","EX","CDISC004","DEV0004",22,"PLACEBO",0,"mg","INJECTION","QD","SUBCUTANEOUS","SDS580-485","TREATMENT","2013-10-29","2013-10-29",22,22],
["CDISCPILOT01","EX","CDISC004","DEV0004",23,"PLACEBO",0,"mg","INJECTION","QD","SUBCUTANEOUS","SDS580-485","TREATMENT","2013-10-30","2013-10-30",23,23],
["CDISCPILOT01","EX","CDISC004","DEV0004",24,"PLACEBO",0,"mg","INJECTION","QD","SUBCUTANEOUS","SDS580-485","TREATMENT","2013-10-31","2013-10-31",24,24],
["CDISCPILOT01","EX","CDISC004","DEV0004",25,"PLACEBO",0,"mg","INJECTION","QD","SUBCUTANEOUS","SDS580-485","TREATMENT","2013-11-01","2013-11-01",25,25],
["CDISCPILOT01","EX","CDISC004","DEV0004",26,"PLACEBO",0,"mg","INJECTION","QD","SUBCUTANEOUS","SDS580-485","TREATMENT","2013-11-02","2013-11-02",26,26],
["CDISCPILOT01","EX","CDISC004","DEV0004",27,"PLACEBO",0,"mg","INJECTION","QD","SUBCUTANEOUS","SDS580-485","TREATMENT","2013-11-03","2013-11-03",27,27],
["CDISCPILOT01","EX","CDISC004","DEV0004",28,"PLACEBO",0,"mg","INJECTION","QD","SUBCUTANEOUS","SDS580-485","TREATMENT","2013-11-04","2013-11-04",28,28],
["CDISCPILOT01","EX","CDISC004","DEV0004",29,"PLACEBO",0,"mg","INJECTION","QD","SUBCUTANEOUS","SDS580-485","TREATMENT","2013-11-05","2013-11-05",29,29],
["CDISCPILOT01","EX","CDISC004","DEV0004",30,"PLACEBO",0,"mg","INJECTION","QD","SUBCUTANEOUS","SDS580-485","TREATMENT","2013-11-06","2013-11-06",30,30],
["CDISCPILOT01","EX","CDISC004","DEV0004",31,"PLACEBO",0,"mg","INJECTION","QD","SUBCUTANEOUS","SDS580-485","TREATMENT","2013-11-07","2013-11-07",31,31],
["CDISCPILOT01","EX","CDISC004","DEV0004",32,"PLACEBO",0,"mg","INJECTION","QD","SUBCUTANEOUS","SDS580-485","TREATMENT","2013-11-08","2013-11-08",32,32],
["CDISCPILOT01","EX","CDISC004","DEV0004",33,"PLACEBO",0,"mg","INJECTION","QD","SUBCUTANEOUS","SDS580-485","TREATMENT","2013-11-09","2013-11-09",33,33],
["CDISCPILOT01","EX","CDISC004","DEV0004",34,"PLACEBO",0,"mg","INJECTION","QD","SUBCUTANEOUS","SDS580-485","TREATMENT","2013-11-10","2013-11-10",34,34],
["CDISCPILOT01","EX","CDISC004","DEV0004",35,"PLACEBO",0,"mg","INJECTION","QD","SUBCUTANEOUS","SDS580-485","TREATMENT","2013-11-11","2013-11-11",35,35],
["CDISCPILOT01","EX","CDISC004","DEV0004",36,"PLACEBO",0,"mg","INJECTION","QD","SUBCUTANEOUS","SDS580-485","TREATMENT","2013-11-12","2013-11-12",36,36],
["CDISCPILOT01","EX","CDISC004","DEV0004",37,"PLACEBO",0,"mg","INJECTION","QD","SUBCUTANEOUS","SDS580-485","TREATMENT","2013-11-13","2013-11-13",37,37],
["CDISCPILOT01","EX","CDISC004","DEV0004",38,"PLACEBO",0,"mg","INJECTION","QD","SUBCUTANEOUS","SDS580-485","TREATMENT","2013-11-14","2013-11-14",38,38],
["CDISCPILOT01","EX","CDISC004","DEV0004",39,"PLACEBO",0,"mg","INJECTION","QD","SUBCUTANEOUS","SDS580-485","TREATMENT","2013-11-15","2013-11-15",39,39],
["CDISCPILOT01","EX","CDISC004","DEV0004",40,"PLACEBO",0,"mg","INJECTION","QD","SUBCUTANEOUS","SDS580-485","TREATMENT","2013-11-16","2013-11-16",40,40],
["CDISCPILOT01","EX","CDISC004","DEV0004",41,"PLACEBO",0,"mg","INJECTION","QD","SUBCUTANEOUS","SDS580-485","TREATMENT","2013-11-17","2013-11-17",41,41],
["CDISCPILOT01","EX","CDISC004","DEV0004",42,"PLACEBO",0,"mg","INJECTION","QD","SUBCUTANEOUS","SDS580-485","TREATMENT","2013-11-18","2013-11-18",42,42],
["CDISCPILOT01","EX","CDISC004","DEV0004",43,"PLACEBO",0,"mg","INJECTION","QD","SUBCUTANEOUS","SDS580-485","TREATMENT","2013-11-19","2013-11-19",43,43],
["CDISCPILOT01","EX","CDISC004","DEV0004",44,"PLACEBO",0,"mg","INJECTION","QD","SUBCUTANEOUS","SDS580-485","TREATMENT","2013-11-20","2013-11-20",44,44],
["CDISCPILOT01","EX","CDISC004","DEV0004",45,"PLACEBO",0,"mg","INJECTION","QD","SUBCUTANEOUS","SDS580-485","TREATMENT","2013-11-21","2013-11-21",45,45],
["CDISCPILOT01","EX","CDISC004","DEV0004",46,"PLACEBO",0,"mg","INJECTION","QD","SUBCUTANEOUS","SDS580-485","TREATMENT","2013-11-22","2013-11-22",46,46],
["CDISCPILOT01","EX","CDISC004","DEV0004",47,"PLACEBO",0,"mg","INJECTION","QD","SUBCUTANEOUS","SDS580-485","TREATMENT","2013-11-23","2013-11-23",47,47],
["CDISCPILOT01","EX","CDISC004","DEV0004",48,"PLACEBO",0,"mg","INJECTION","QD","SUBCUTANEOUS","SDS580-485","TREATMENT","2013-11-24","2013-11-24",48,48],
["CDISCPILOT01","EX","CDISC004","DEV0004",49,"PLACEBO",0,"mg","INJECTION","QD","SUBCUTANEOUS","SDS580-485","TREATMENT","2013-11-25","2013-11-25",49,49],
["CDISCPILOT01","EX","CDISC004","DEV0004",50,"PLACEBO",0,"mg","INJECTION","QD","SUBCUTANEOUS","SDS580-485","TREATMENT","2013-11-26","2013-11-26",50,50],
["CDISCPILOT01","EX","CDISC004","DEV0004",51,"PLACEBO",0,"mg","INJECTION","QD","SUBCUTANEOUS","SDS580-485","TREATMENT","2013-11-27","2013-11-27",51,51],
["CDISCPILOT01","EX","CDISC004","DEV0004",52,"PLACEBO",0,"mg","INJECTION","QD","SUBCUTANEOUS","SDS580-485","TREATMENT","2013-11-28","2013-11-28",52,52],
["CDISCPILOT01","EX","CDISC004","DEV0004",53,"PLACEBO",0,"mg","INJECTION","QD","SUBCUTANEOUS","SDS580-485","TREATMENT","2013-11-29","2013-11-29",53,53],
["CDISCPILOT01","EX","CDISC004","DEV0004",54,"PLACEBO",0,"mg","INJECTION","QD","SUBCUTANEOUS","SDS580-485","TREATMENT","2013-11-30","2013-11-30",54,54],
["CDISCPILOT01","EX","CDISC004","DEV0004",55,"PLACEBO",0,"mg","INJECTION","QD","SUBCUTANEOUS","SDS580-485","TREATMENT","2013-12-01","2013-12-01",55,55],
["CDISCPILOT01","EX","CDISC004","DEV0004",56,"PLACEBO",0,"mg","INJECTION","QD","SUBCUTANEOUS","SDS580-485","TREATMENT","2013-12-02","2013-12-02",56,56],
["CDISCPILOT01","EX","CDISC004","DEV0004",57,"PLACEBO",0,"mg","INJECTION","QD","SUBCUTANEOUS","SDS580-485","TREATMENT","2013-12-03","2013-12-03",57,57],
["CDISCPILOT01","EX","CDISC004","DEV0004",58,"PLACEBO",0,"mg","INJECTION","QD","SUBCUTANEOUS","SDS580-485","TREATMENT","2013-12-04","2013-12-04",58,58],
["CDISCPILOT01","EX","CDISC004","DEV0004",59,"PLACEBO",0,"mg","INJECTION","QD","SUBCUTANEOUS","SDS580-485","TREATMENT","2013-12-05","2013-12-05",59,59],
["CDISCPILOT01","EX","CDISC004","DEV0004",60,"PLACEBO",0,"mg","INJECTION","QD","SUBCUTANEOUS","SDS580-485","TREATMENT","2013-12-06","2013-12-06",60,60],
["CDISCPILOT01","EX","CDISC004","DEV0004",61,"PLACEBO",0,"mg","INJECTION","QD","SUBCUTANEOUS","SDS580-485","TREATMENT","2013-12-07","2013-12-07",61,61],
["CDISCPILOT01","EX","CDISC004","DEV0004",62,"PLACEBO",0,"mg","INJECTION","QD","SUBCUTANEOUS","SDS580-485","TREATMENT","2013-12-08","2013-12-08",62,62],
["CDISCPILOT01","EX","CDISC004","DEV0004",63,"PLACEBO",0,"mg","INJECTION","QD","SUBCUTANEOUS","SDS580-485","TREATMENT","2013-12-09","2013-12-09",63,63],
["CDISCPILOT01","EX","CDISC004","DEV0004",64,"PLACEBO",0,"mg","INJECTION","QD","SUBCUTANEOUS","SDS580-485","TREATMENT","2013-12-10","2013-12-10",64,64],
["CDISCPILOT01","EX","CDISC004","DEV0004",65,"PLACEBO",0,"mg","INJECTION","QD","SUBCUTANEOUS","SDS580-485","TREATMENT","2013-12-11","2013-12-11",65,65],
["CDISCPILOT01","EX","CDISC004","DEV0004",66,"PLACEBO",0,"mg","INJECTION","QD","SUBCUTANEOUS","SDS580-485","TREATMENT","2013-12-12","2013-12-12",66,66],
["CDISCPILOT01","EX","CDISC004","DEV0004",67,"PLACEBO",0,"mg","INJECTION","QD","SUBCUTANEOUS","SDS580-485","TREATMENT","2013-12-13","2013-12-13",67,67],
["CDISCPILOT01","EX","CDISC004","DEV0004",68,"PLACEBO",0,"mg","INJECTION","QD","SUBCUTANEOUS","SDS580-485","TREATMENT","2013-12-14","2013-12-14",68,68],
["CDISCPILOT01","EX","CDISC004","DEV0004",69,"PLACEBO",0,"mg","INJECTION","QD","SUBCUTANEOUS","SDS580-485","TREATMENT","2013-12-15","2013-12-15",69,69],
["CDISCPILOT01","EX","CDISC004","DEV0004",70,"PLACEBO",0,"mg","INJECTION","QD","SUBCUTANEOUS","SDS580-485","TREATMENT","2013-12-16","2013-12-16",70,70],
["CDISCPILOT01","EX","CDISC004","DEV0004",71,"PLACEBO",0,"mg","INJECTION","QD","SUBCUTANEOUS","SDS580-485","TREATMENT","2013-12-17","2013-12-17",71,71],
["CDISCPILOT01","EX","CDISC004","DEV0004",72,"PLACEBO",0,"mg","INJECTION","QD","SUBCUTANEOUS","SDS580-485","TREATMENT","2013-12-18","2013-12-18",72,72],
["CDISCPILOT01","EX","CDISC004","DEV0004",73,"PLACEBO",0,"mg","INJECTION","QD","SUBCUTANEOUS","SDS580-485","TREATMENT","2013-12-19","2013-12-19",73,73],
["CDISCPILOT01","EX","CDISC004","DEV0004",74,"PLACEBO",0,"mg","INJECTION","QD","SUBCUTANEOUS","SDS580-485","TREATMENT","2013-12-20","2013-12-20",74,74],
["CDISCPILOT01","EX","CDISC004","DEV0004",75,"PLACEBO",0,"mg","INJECTION","QD","SUBCUTANEOUS","SDS580-485","TREATMENT","2013-12-21","2013-12-21",75,75],
["CDISCPILOT01","EX","CDISC004","DEV0004",76,"PLACEBO",0,"mg","INJECTION","QD","SUBCUTANEOUS","SDS580-485","TREATMENT","2013-12-22","2013-12-22",76,76],
["CDISCPILOT01","EX","CDISC004","DEV0004",77,"PLACEBO",0,"mg","INJECTION","QD","SUBCUTANEOUS","SDS580-485","TREATMENT","2013-12-23","2013-12-23",77,77],
["CDISCPILOT01","EX","CDISC004","DEV0004",78,"PLACEBO",0,"mg","INJECTION","QD","SUBCUTANEOUS","SDS580-485","TREATMENT","2013-12-24","2013-12-24",78,78],
["CDISCPILOT01","EX","CDISC004","DEV0004",79,"PLACEBO",0,"mg","INJECTION","QD","SUBCUTANEOUS","SDS580-485","TREATMENT","2013-12-25","2013-12-25",79,79],
["CDISCPILOT01","EX","CDISC004","DEV0004",80,"PLACEBO",0,"mg","INJECTION","QD","SUBCUTANEOUS","SDS580-485","TREATMENT","2013-12-26","2013-12-26",80,80],
["CDISCPILOT01","EX","CDISC004","DEV0004",81,"PLACEBO",0,"mg","INJECTION","QD","SUBCUTANEOUS","SDS580-485","TREATMENT","2013-12-27","2013-12-27",81,81],
["CDISCPILOT01","EX","CDISC004","DEV0004",82,"PLACEBO",0,"mg","INJECTION","QD","SUBCUTANEOUS","SDS580-485","TREATMENT","2013-12-28","2013-12-28",82,82],
["CDISCPILOT01","EX","CDISC004","DEV0004",83,"PLACEBO",0,"mg","INJECTION","QD","SUBCUTANEOUS","SDS580-485","TREATMENT","2013-12-29","2013-12-29",83,83],
["CDISCPILOT01","EX","CDISC004","DEV0004",84,"PLACEBO",0,"mg","INJECTION","QD","SUBCUTANEOUS","SDS580-485","TREATMENT","2013-12-30","2013-12-30",84,84],
["CDISCPILOT01","EX","CDISC004","DEV0004",85,"PLACEBO",0,"mg","INJECTION","QD","SUBCUTANEOUS","SDS580-485","TREATMENT","2013-12-31","2013-12-31",85,85],
["CDISCPILOT01","EX","CDISC004","DEV0004",86,"PLACEBO",0,"mg","INJECTION","QD","SUBCUTANEOUS","SDS580-485","TREATMENT","2014-01-01","2014-01-01",86,86],
["CDISCPILOT01","EX","CDISC004","DEV0004",87,"PLACEBO",0,"mg","INJECTION","QD","SUBCUTANEOUS","SDS580-485","TREATMENT","2014-01-02","2014-01-02",87,87],
["CDISCPILOT01","EX","CDISC004","DEV0004",88,"PLACEBO",0,"mg","INJECTION","QD","SUBCUTANEOUS","SDS580-485","TREATMENT","2014-01-03","2014-01-03",88,88],
["CDISCPILOT01","EX","CDISC004","DEV0004",89,"PLACEBO",0,"mg","INJECTION","QD","SUBCUTANEOUS","SDS580-485","TREATMENT","2014-01-04","2014-01-04",89,89],
["CDISCPILOT01","EX","CDISC004","DEV0004",90,"PLACEBO",0,"mg","INJECTION","QD","SUBCUTANEOUS","SDS580-485","TREATMENT","2014-01-05","2014-01-05",90,90],
["CDISCPILOT01","EX","CDISC004","DEV0004",91,"PLACEBO",0,"mg","INJECTION","QD","SUBCUTANEOUS","SDS580-485","TREATMENT","2014-01-06","2014-01-06",91,91],
["CDISCPILOT01","EX","CDISC004","DEV0004",92,"PLACEBO",0,"mg","INJECTION","QD","SUBCUTANEOUS","SDS580-485","TREATMENT","2014-01-07","2014-01-07",92,92],
["CDISCPILOT01","EX","CDISC004","DEV0004",93,"PLACEBO",0,"mg","INJECTION","QD","SUBCUTANEOUS","SDS580-485","TREATMENT","2014-01-08","2014-01-08",93,93],
["CDISCPILOT01","EX","CDISC004","DEV0004",94,"PLACEBO",0,"mg","INJECTION","QD","SUBCUTANEOUS","SDS580-485","TREATMENT","2014-01-09","2014-01-09",94,94],
["CDISCPILOT01","EX","CDISC004","DEV0004",95,"PLACEBO",0,"mg","INJECTION","QD","SUBCUTANEOUS","SDS580-485","TREATMENT","2014-01-10","2014-01-10",95,95],
["CDISCPILOT01","EX","CDISC004","DEV0004",96,"PLACEBO",0,"mg","INJECTION","QD","SUBCUTANEOUS","SDS580-485","TREATMENT","2014-01-11","2014-01-11",96,96],
["CDISCPILOT01","EX","CDISC004","DEV0004",97,"PLACEBO",0,"mg","INJECTION","QD","SUBCUTANEOUS","SDS580-485","TREATMENT","2014-01-12","2014-01-12",97,97],
["CDISCPILOT01","EX","CDISC004","DEV0004",98,"PLACEBO",0,"mg","INJECTION","QD","SUBCUTANEOUS","SDS580-485","TREATMENT","2014-01-13","2014-01-13",98,98],
["CDISCPILOT01","EX","CDISC004","DEV0004",99,"PLACEBO",0,"mg","INJECTION","QD","SUBCUTANEOUS","SDS580-485","TREATMENT","2014-01-14","2014-01-14",99,99],
["CDISCPILOT01","EX","CDISC004","DEV0004",100,"PLACEBO",0,"mg","INJECTION","QD","SUBCUTANEOUS","SDS580-485","TREATMENT","2014-01-15","2014-01-15",100,100],
["CDISCPILOT01","EX","CDISC004","DEV0004",101,"PLACEBO",0,"mg","INJECTION","QD","SUBCUTANEOUS","SDS580-485","TREATMENT","2014-01-16","2014-01-16",101,101],
["CDISCPILOT01","EX","CDISC004","DEV0004",102,"PLACEBO",0,"mg","INJECTION","QD","SUBCUTANEOUS","SDS580-485","TREATMENT","2014-01-17","2014-01-17",102,102],
["CDISCPILOT01","EX","CDISC004","DEV0004",103,"PLACEBO",0,"mg","INJECTION","QD","SUBCUTANEOUS","SDS580-485","TREATMENT","2014-01-18","2014-01-18",103,103],
["CDISCPILOT01","EX","CDISC004","DEV0004",104,"PLACEBO",0,"mg","INJECTION","QD","SUBCUTANEOUS","SDS580-485","TREATMENT","2014-01-19","2014-01-19",104,104],
["CDISCPILOT01","EX","CDISC004","DEV0004",105,"PLACEBO",0,"mg","INJECTION","QD","SUBCUTANEOUS","SDS580-485","TREATMENT","2014-01-20","2014-01-20",105,105],
["CDISCPILOT01","EX","CDISC004","DEV0004",106,"PLACEBO",0,"mg","INJECTION","QD","SUBCUTANEOUS","SDS580-485","TREATMENT","2014-01-21","2014-01-21",106,106],
["CDISCPILOT01","EX","CDISC004","DEV0004",107,"PLACEBO",0,"mg","INJECTION","QD","SUBCUTANEOUS","SDS580-485","TREATMENT","2014-01-22","2014-01-22",107,107],
["CDISCPILOT01","EX","CDISC004","DEV0004",108,"PLACEBO",0,"mg","INJECTION","QD","SUBCUTANEOUS","SDS580-485","TREATMENT","2014-01-23","2014-01-23",108,108],
["CDISCPILOT01","EX","CDISC004","DEV0004",109,"PLACEBO",0,"mg","INJECTION","QD","SUBCUTANEOUS","SDS580-485","TREATMENT","2014-01-24","2014-01-24",109,109],
["CDISCPILOT01","EX","CDISC004","DEV0004",110,"PLACEBO",0,"mg","INJECTION","QD","SUBCUTANEOUS","SDS580-485","TREATMENT","2014-01-25","2014-01-25",110,110],
["CDISCPILOT01","EX","CDISC004","DEV0004",111,"PLACEBO",0,"mg","INJECTION","QD","SUBCUTANEOUS","SDS580-485","TREATMENT","2014-01-26","2014-01-26",111,111],
["CDISCPILOT01","EX","CDISC004","DEV0004",112,"PLACEBO",0,"mg","INJECTION","QD","SUBCUTANEOUS","SDS580-485","TREATMENT","2014-01-27","2014-01-27",112,112],
["CDISCPILOT01","EX","CDISC004","DEV0004",113,"PLACEBO",0,"mg","INJECTION","QD","SUBCUTANEOUS","SDS580-485","TREATMENT","2014-01-28","2014-01-28",113,113],
["CDISCPILOT01","EX","CDISC004","DEV0004",114,"PLACEBO",0,"mg","INJECTION","QD","SUBCUTANEOUS","SDS580-485","TREATMENT","2014-01-29","2014-01-29",114,114],
["CDISCPILOT01","EX","CDISC004","DEV0004",115,"PLACEBO",0,"mg","INJECTION","QD","SUBCUTANEOUS","SDS580-485","TREATMENT","2014-01-30","2014-01-30",115,115],
["CDISCPILOT01","EX","CDISC004","DEV0004",116,"PLACEBO",0,"mg","INJECTION","QD","SUBCUTANEOUS","SDS580-485","TREATMENT","2014-01-31","2014-01-31",116,116],
["CDISCPILOT01","EX","CDISC004","DEV0004",117,"PLACEBO",0,"mg","INJECTION","QD","SUBCUTANEOUS","SDS580-485","TREATMENT","2014-02-01","2014-02-01",117,117],
["CDISCPILOT01","EX","CDISC004","DEV0004",118,"PLACEBO",0,"mg","INJECTION","QD","SUBCUTANEOUS","SDS580-485","TREATMENT","2014-02-02","2014-02-02",118,118],
["CDISCPILOT01","EX","CDISC004","DEV0004",119,"PLACEBO",0,"mg","INJECTION","QD","SUBCUTANEOUS","SDS580-485","TREATMENT","2014-02-03","2014-02-03",119,119],
["CDISCPILOT01","EX","CDISC004","DEV0004",120,"PLACEBO",0,"mg","INJECTION","QD","SUBCUTANEOUS","SDS580-485","TREATMENT","2014-02-04","2014-02-04",120,120],
["CDISCPILOT01","EX","CDISC004","DEV0004",121,"PLACEBO",0,"mg","INJECTION","QD","SUBCUTANEOUS","SDS580-485","TREATMENT","2014-02-05","2014-02-05",121,121],
["CDISCPILOT01","EX","CDISC004","DEV0004",122,"PLACEBO",0,"mg","INJECTION","QD","SUBCUTANEOUS","SDS580-485","TREATMENT","2014-02-06","2014-02-06",122,122],
["CDISCPILOT01","EX","CDISC004","DEV0004",123,"PLACEBO",0,"mg","INJECTION","QD","SUBCUTANEOUS","SDS580-485","TREATMENT","2014-02-07","2014-02-07",123,123],
["CDISCPILOT01","EX","CDISC004","DEV0004",124,"PLACEBO",0,"mg","INJECTION","QD","SUBCUTANEOUS","SDS580-485","TREATMENT","2014-02-08","2014-02-08",124,124],
["CDISCPILOT01","EX","CDISC004","DEV0004",125,"PLACEBO",0,"mg","INJECTION","QD","SUBCUTANEOUS","SDS580-485","TREATMENT","2014-02-09","2014-02-09",125,125],
["CDISCPILOT01","EX","CDISC004","DEV0004",126,"PLACEBO",0,"mg","INJECTION","QD","SUBCUTANEOUS","SDS580-485","TREATMENT","2014-02-10","2014-02-10",126,126],
["CDISCPILOT01","EX","CDISC004","DEV0004",127,"PLACEBO",0,"mg","INJECTION","QD","SUBCUTANEOUS","SDS580-485","TREATMENT","2014-02-11","2014-02-11",127,127],
["CDISCPILOT01","EX","CDISC004","DEV0004",128,"PLACEBO",0,"mg","INJECTION","QD","SUBCUTANEOUS","SDS580-485","TREATMENT","2014-02-12","2014-02-12",128,128],
["CDISCPILOT01","EX","CDISC004","DEV0004",129,"PLACEBO",0,"mg","INJECTION","QD","SUBCUTANEOUS","SDS580-485","TREATMENT","2014-02-13","2014-02-13",129,129],
["CDISCPILOT01","EX","CDISC004","DEV0004",130,"PLACEBO",0,"mg","INJECTION","QD","SUBCUTANEOUS","SDS580-485","TREATMENT","2014-02-14","2014-02-14",130,130],
["CDISCPILOT01","EX","CDISC004","DEV0004",131,"PLACEBO",0,"mg","INJECTION","QD","SUBCUTANEOUS","SDS580-485","TREATMENT","2014-02-15","2014-02-15",131,131],
["CDISCPILOT01","EX","CDISC004","DEV0004",132,"PLACEBO",0,"mg","INJECTION","QD","SUBCUTANEOUS","SDS580-485","TREATMENT","2014-02-16","2014-02-16",132,132],
["CDISCPILOT01","EX","CDISC004","DEV0004",133,"PLACEBO",0,"mg","INJECTION","QD","SUBCUTANEOUS","SDS580-485","TREATMENT","2014-02-17","2014-02-17",133,133],
["CDISCPILOT01","EX","CDISC004","DEV0004",134,"PLACEBO",0,"mg","INJECTION","QD","SUBCUTANEOUS","SDS580-485","TREATMENT","2014-02-18","2014-02-18",134,134],
["CDISCPILOT01","EX","CDISC004","DEV0004",135,"PLACEBO",0,"mg","INJECTION","QD","SUBCUTANEOUS","SDS580-485","TREATMENT","2014-02-19","2014-02-19",135,135],
["CDISCPILOT01","EX","CDISC004","DEV0004",136,"PLACEBO",0,"mg","INJECTION","QD","SUBCUTANEOUS","SDS580-485","TREATMENT","2014-02-20","2014-02-20",136,136],
["CDISCPILOT01","EX","CDISC004","DEV0004",137,"PLACEBO",0,"mg","INJECTION","QD","SUBCUTANEOUS","SDS580-485","TREATMENT","2014-02-21","2014-02-21",137,137],
["CDISCPILOT01","EX","CDISC004","DEV0004",138,"PLACEBO",0,"mg","INJECTION","QD","SUBCUTANEOUS","SDS580-485","TREATMENT","2014-02-22","2014-02-22",138,138],
["CDISCPILOT01","EX","CDISC004","DEV0004",139,"PLACEBO",0,"mg","INJECTION","QD","SUBCUTANEOUS","SDS580-485","TREATMENT","2014-02-23","2014-02-23",139,139],
["CDISCPILOT01","EX","CDISC004","DEV0004",140,"PLACEBO",0,"mg","INJECTION","QD","SUBCUTANEOUS","SDS580-485","TREATMENT","2014-02-24","2014-02-24",140,140],
["CDISCPILOT01","EX","CDISC004","DEV0004",141,"PLACEBO",0,"mg","INJECTION","QD","SUBCUTANEOUS","SDS580-485","TREATMENT","2014-02-25","2014-02-25",141,141],
["CDISCPILOT01","EX","CDISC004","DEV0004",142,"PLACEBO",0,"mg","INJECTION","QD","SUBCUTANEOUS","SDS580-485","TREATMENT","2014-02-26","2014-02-26",142,142],
["CDISCPILOT01","EX","CDISC004","DEV0004",143,"PLACEBO",0,"mg","INJECTION","QD","SUBCUTANEOUS","SDS580-485","TREATMENT","2014-02-27","2014-02-27",143,143],
["CDISCPILOT01","EX","CDISC004","DEV0004",144,"PLACEBO",0,"mg","INJECTION","QD","SUBCUTANEOUS","SDS580-485","TREATMENT","2014-02-28","2014-02-28",144,144],
["CDISCPILOT01","EX","CDISC004","DEV0004",145,"PLACEBO",0,"mg","INJECTION","QD","SUBCUTANEOUS","SDS580-485","TREATMENT","2014-03-01","2014-03-01",145,145],
["CDISCPILOT01","EX","CDISC004","DEV0004",146,"PLACEBO",0,"mg","INJECTION","QD","SUBCUTANEOUS","SDS580-485","TREATMENT","2014-03-02","2014-03-02",146,146],
["CDISCPILOT01","EX","CDISC004","DEV0004",147,"PLACEBO",0,"mg","INJECTION","QD","SUBCUTANEOUS","SDS580-485","TREATMENT","2014-03-03","2014-03-03",147,147],
["CDISCPILOT01","EX","CDISC004","DEV0004",148,"PLACEBO",0,"mg","INJECTION","QD","SUBCUTANEOUS","SDS580-485","TREATMENT","2014-03-04","2014-03-04",148,148],
["CDISCPILOT01","EX","CDISC004","DEV0004",149,"PLACEBO",0,"mg","INJECTION","QD","SUBCUTANEOUS","SDS580-485","TREATMENT","2014-03-05","2014-03-05",149,149],
["CDISCPILOT01","EX","CDISC004","DEV0004",150,"PLACEBO",0,"mg","INJECTION","QD","SUBCUTANEOUS","SDS580-485","TREATMENT","2014-03-06","2014-03-06",150,150],
["CDISCPILOT01","EX","CDISC004","DEV0004",151,"PLACEBO",0,"mg","INJECTION","QD","SUBCUTANEOUS","SDS580-485","TREATMENT","2014-03-07","2014-03-07",151,151],
["CDISCPILOT01","EX","CDISC004","DEV0004",152,"PLACEBO",0,"mg","INJECTION","QD","SUBCUTANEOUS","SDS580-485","TREATMENT","2014-03-08","2014-03-08",152,152],
["CDISCPILOT01","EX","CDISC004","DEV0004",153,"PLACEBO",0,"mg","INJECTION","QD","SUBCUTANEOUS","SDS580-485","TREATMENT","2014-03-09","2014-03-09",153,153],
["CDISCPILOT01","EX","CDISC004","DEV0004",154,"PLACEBO",0,"mg","INJECTION","QD","SUBCUTANEOUS","SDS580-485","TREATMENT","2014-03-10","2014-03-10",154,154],
["CDISCPILOT01","EX","CDISC004","DEV0004",155,"PLACEBO",0,"mg","INJECTION","QD","SUBCUTANEOUS","SDS580-485","TREATMENT","2014-03-11","2014-03-11",155,155],
["CDISCPILOT01","EX","CDISC004","DEV0004",156,"PLACEBO",0,"mg","INJECTION","QD","SUBCUTANEOUS","SDS580-485","TREATMENT","2014-03-12","2014-03-12",156,156],
["CDISCPILOT01","EX","CDISC004","DEV0004",157,"PLACEBO",0,"mg","INJECTION","QD","SUBCUTANEOUS","SDS580-485","TREATMENT","2014-03-13","2014-03-13",157,157],
["CDISCPILOT01","EX","CDISC004","DEV0004",158,"PLACEBO",0,"mg","INJECTION","QD","SUBCUTANEOUS","SDS580-485","TREATMENT","2014-03-14","2014-03-14",158,158],
["CDISCPILOT01","EX","CDISC004","DEV0004",159,"PLACEBO",0,"mg","INJECTION","QD","SUBCUTANEOUS","SDS580-485","TREATMENT","2014-03-15","2014-03-15",159,159],
["CDISCPILOT01","EX","CDISC004","DEV0004",160,"PLACEBO",0,"mg","INJECTION","QD","SUBCUTANEOUS","SDS580-485","TREATMENT","2014-03-16","2014-03-16",160,160],
["CDISCPILOT01","EX","CDISC004","DEV0004",161,"PLACEBO",0,"mg","INJECTION","QD","SUBCUTANEOUS","SDS580-485","TREATMENT","2014-03-17","2014-03-17",161,161],
["CDISCPILOT01","EX","CDISC004","DEV0004",162,"PLACEBO",0,"mg","INJECTION","QD","SUBCUTANEOUS","SDS580-485","TREATMENT","2014-03-18","2014-03-18",162,162],
["CDISCPILOT01","EX","CDISC005","DEV0005",1,"ZANOMALINE",54,"mg","INJECTION","QD","SUBCUTANEOUS","SDS580-359","TREATMENT","2013-02-04","2013-02-04",1,1],
["CDISCPILOT01","EX","CDISC005","DEV0005",2,"ZANOMALINE",54,"mg","INJECTION","QD","SUBCUTANEOUS","SDS580-359","TREATMENT","2013-02-05","2013-02-05",2,2],
["CDISCPILOT01","EX","CDISC005","DEV0005",3,"ZANOMALINE",54,"mg","INJECTION","QD","SUBCUTANEOUS","SDS580-359","TREATMENT","2013-02-06","2013-02-06",3,3],
["CDISCPILOT01","EX","CDISC005","DEV0005",4,"ZANOMALINE",54,"mg","INJECTION","QD","SUBCUTANEOUS","SDS580-359","TREATMENT","2013-02-07","2013-02-07",4,4],
["CDISCPILOT01","EX","CDISC005","DEV0005",5,"ZANOMALINE",54,"mg","INJECTION","QD","SUBCUTANEOUS","SDS580-359","TREATMENT","2013-02-08","2013-02-08",5,5],
["CDISCPILOT01","EX","CDISC005","DEV0005",6,"ZANOMALINE",54,"mg","INJECTION","QD","SUBCUTANEOUS","SDS580-359","TREATMENT","2013-02-09","2013-02-09",6,6],
["CDISCPILOT01","EX","CDISC005","DEV0005",7,"ZANOMALINE",54,"mg","INJECTION","QD","SUBCUTANEOUS","SDS580-359","TREATMENT","2013-02-10","2013-02-10",7,7],
["CDISCPILOT01","EX","CDISC005","DEV0005",8,"ZANOMALINE",54,"mg","INJECTION","QD","SUBCUTANEOUS","SDS580-359","TREATMENT","2013-02-11","2013-02-11",8,8],
["CDISCPILOT01","EX","CDISC005","DEV0005",9,"ZANOMALINE",54,"mg","INJECTION","QD","SUBCUTANEOUS","SDS580-359","TREATMENT","2013-02-12","2013-02-12",9,9],
["CDISCPILOT01","EX","CDISC005","DEV0005",10,"ZANOMALINE",54,"mg","INJECTION","QD","SUBCUTANEOUS","SDS580-359","TREATMENT","2013-02-13","2013-02-13",10,10],
["CDISCPILOT01","EX","CDISC005","DEV0005",11,"ZANOMALINE",54,"mg","INJECTION","QD","SUBCUTANEOUS","SDS580-359","TREATMENT","2013-02-14","2013-02-14",11,11],
["CDISCPILOT01","EX","CDISC005","DEV0005",12,"ZANOMALINE",54,"mg","INJECTION","QD","SUBCUTANEOUS","SDS580-359","TREATMENT","2013-02-15","2013-02-15",12,12],
["CDISCPILOT01","EX","CDISC005","DEV0005",13,"ZANOMALINE",54,"mg","INJECTION","QD","SUBCUTANEOUS","SDS580-359","TREATMENT","2013-02-16","2013-02-16",13,13],
["CDISCPILOT01","EX","CDISC005","DEV0005",14,"ZANOMALINE",54,"mg","INJECTION","QD","SUBCUTANEOUS","SDS580-359","TREATMENT","2013-02-17","2013-02-17",14,14],
["CDISCPILOT01","EX","CDISC005","DEV0005",15,"ZANOMALINE",54,"mg","INJECTION","QD","SUBCUTANEOUS","SDS580-359","TREATMENT","2013-02-18","2013-02-18",15,15],
["CDISCPILOT01","EX","CDISC005","DEV0005",16,"ZANOMALINE",54,"mg","INJECTION","QD","SUBCUTANEOUS","SDS580-359","TREATMENT","2013-02-19","2013-02-19",16,16],
["CDISCPILOT01","EX","CDISC005","DEV0005",17,"ZANOMALINE",81,"mg","INJECTION","QD","SUBCUTANEOUS","SDS580-983","TREATMENT","2013-02-20","2013-02-20",17,17],
["CDISCPILOT01","EX","CDISC005","DEV0005",18,"ZANOMALINE",81,"mg","INJECTION","QD","SUBCUTANEOUS","SDS580-983","TREATMENT","2013-02-21","2013-02-21",18,18],
["CDISCPILOT01","EX","CDISC005","DEV0005",19,"ZANOMALINE",81,"mg","INJECTION","QD","SUBCUTANEOUS","SDS580-983","TREATMENT","2013-02-22","2013-02-22",19,19],
["CDISCPILOT01","EX","CDISC005","DEV0005",20,"ZANOMALINE",81,"mg","INJECTION","QD","SUBCUTANEOUS","SDS580-983","TREATMENT","2013-02-23","2013-02-23",20,20],
["CDISCPILOT01","EX","CDISC005","DEV0005",21,"ZANOMALINE",81,"mg","INJECTION","QD","SUBCUTANEOUS","SDS580-983","TREATMENT","2013-02-24","2013-02-24",21,21],
["CDISCPILOT01","EX","CDISC005","DEV0005",22,"ZANOMALINE",81,"mg","INJECTION","QD","SUBCUTANEOUS","SDS580-983","TREATMENT","2013-02-25","2013-02-25",22,22],
["CDISCPILOT01","EX","CDISC005","DEV0005",23,"ZANOMALINE",81,"mg","INJECTION","QD","SUBCUTANEOUS","SDS580-983","TREATMENT","2013-02-26","2013-02-26",23,23],
["CDISCPILOT01","EX","CDISC005","DEV0005",24,"ZANOMALINE",81,"mg","INJECTION","QD","SUBCUTANEOUS","SDS580-983","TREATMENT","2013-02-27","2013-02-27",24,24],
["CDISCPILOT01","EX","CDISC005","DEV0005",25,"ZANOMALINE",81,"mg","INJECTION","QD","SUBCUTANEOUS","SDS580-983","TREATMENT","2013-02-28","2013-02-28",25,25],
["CDISCPILOT01","EX","CDISC005","DEV0005",26,"ZANOMALINE",81,"mg","INJECTION","QD","SUBCUTANEOUS","SDS580-983","TREATMENT","2013-03-01","2013-03-01",26,26],
["CDISCPILOT01","EX","CDISC005","DEV0005",27,"ZANOMALINE",81,"mg","INJECTION","QD","SUBCUTANEOUS","SDS580-983","TREATMENT","2013-03-02","2013-03-02",27,27],
["CDISCPILOT01","EX","CDISC005","DEV0005",28,"ZANOMALINE",81,"mg","INJECTION","QD","SUBCUTANEOUS","SDS580-983","TREATMENT","2013-03-03","2013-03-03",28,28],
["CDISCPILOT01","EX","CDISC005","DEV0005",29,"ZANOMALINE",81,"mg","INJECTION","QD","SUBCUTANEOUS","SDS580-983","TREATMENT","2013-03-04","2013-03-04",29,29],
["CDISCPILOT01","EX","CDISC005","DEV0005",30,"ZANOMALINE",81,"mg","INJECTION","QD","SUBCUTANEOUS","SDS580-983","TREATMENT","2013-03-05","2013-03-05",30,30],
["CDISCPILOT01","EX","CDISC005","DEV0005",31,"ZANOMALINE",81,"mg","INJECTION","QD","SUBCUTANEOUS","SDS580-983","TREATMENT","2013-03-06","2013-03-06",31,31],
["CDISCPILOT01","EX","CDISC005","DEV0005",32,"ZANOMALINE",81,"mg","INJECTION","QD","SUBCUTANEOUS","SDS580-983","TREATMENT","2013-03-07","2013-03-07",32,32],
["CDISCPILOT01","EX","CDISC005","DEV0005",33,"ZANOMALINE",81,"mg","INJECTION","QD","SUBCUTANEOUS","SDS580-983","TREATMENT","2013-03-08","2013-03-08",33,33],
["CDISCPILOT01","EX","CDISC005","DEV0005",34,"ZANOMALINE",81,"mg","INJECTION","QD","SUBCUTANEOUS","SDS580-983","TREATMENT","2013-03-09","2013-03-09",34,34],
["CDISCPILOT01","EX","CDISC005","DEV0005",35,"ZANOMALINE",81,"mg","INJECTION","QD","SUBCUTANEOUS","SDS580-983","TREATMENT","2013-03-10","2013-03-10",35,35],
["CDISCPILOT01","EX","CDISC005","DEV0005",36,"ZANOMALINE",81,"mg","INJECTION","QD","SUBCUTANEOUS","SDS580-983","TREATMENT","2013-03-11","2013-03-11",36,36],
["CDISCPILOT01","EX","CDISC005","DEV0005",37,"ZANOMALINE",81,"mg","INJECTION","QD","SUBCUTANEOUS","SDS580-983","TREATMENT","2013-03-12","2013-03-12",37,37],
["CDISCPILOT01","EX","CDISC005","DEV0005",38,"ZANOMALINE",81,"mg","INJECTION","QD","SUBCUTANEOUS","SDS580-983","TREATMENT","2013-03-13","2013-03-13",38,38],
["CDISCPILOT01","EX","CDISC005","DEV0005",39,"ZANOMALINE",81,"mg","INJECTION","QD","SUBCUTANEOUS","SDS580-983","TREATMENT","2013-03-14","2013-03-14",39,39],
["CDISCPILOT01","EX","CDISC005","DEV0005",40,"ZANOMALINE",81,"mg","INJECTION","QD","SUBCUTANEOUS","SDS580-983","TREATMENT","2013-03-15","2013-03-15",40,40],
["CDISCPILOT01","EX","CDISC005","DEV0005",41,"ZANOMALINE",81,"mg","INJECTION","QD","SUBCUTANEOUS","SDS580-983","TREATMENT","2013-03-16","2013-03-16",41,41],
["CDISCPILOT01","EX","CDISC005","DEV0005",42,"ZANOMALINE",81,"mg","INJECTION","QD","SUBCUTANEOUS","SDS580-983","TREATMENT","2013-03-17","2013-03-17",42,42],
["CDISCPILOT01","EX","CDISC005","DEV0005",43,"ZANOMALINE",81,"mg","INJECTION","QD","SUBCUTANEOUS","SDS580-983","TREATMENT","2013-03-18","2013-03-18",43,43],
["CDISCPILOT01","EX","CDISC005","DEV0005",44,"ZANOMALINE",81,"mg","INJECTION","QD","SUBCUTANEOUS","SDS580-983","TREATMENT","2013-03-19","2013-03-19",44,44],
["CDISCPILOT01","EX","CDISC005","DEV0005",45,"ZANOMALINE",81,"mg","INJECTION","QD","SUBCUTANEOUS","SDS580-983","TREATMENT","2013-03-20","2013-03-20",45,45],
["CDISCPILOT01","EX","CDISC005","DEV0005",46,"ZANOMALINE",81,"mg","INJECTION","QD","SUBCUTANEOUS","SDS580-983","TREATMENT","2013-03-21","2013-03-21",46,46],
["CDISCPILOT01","EX","CDISC005","DEV0005",47,"ZANOMALINE",81,"mg","INJECTION","QD","SUBCUTANEOUS","SDS580-983","TREATMENT","2013-03-22","2013-03-22",47,47],
["CDISCPILOT01","EX","CDISC005","DEV0005",48,"ZANOMALINE",81,"mg","INJECTION","QD","SUBCUTANEOUS","SDS580-983","TREATMENT","2013-03-23","2013-03-23",48,48],
["CDISCPILOT01","EX","CDISC005","DEV0005",49,"ZANOMALINE",81,"mg","INJECTION","QD","SUBCUTANEOUS","SDS580-983","TREATMENT","2013-03-24","2013-03-24",49,49],
["CDISCPILOT01","EX","CDISC005","DEV0005",50,"ZANOMALINE",81,"mg","INJECTION","QD","SUBCUTANEOUS","SDS580-983","TREATMENT","2013-03-25","2013-03-25",50,50],
["CDISCPILOT01","EX","CDISC005","DEV0005",51,"ZANOMALINE",81,"mg","INJECTION","QD","SUBCUTANEOUS","SDS580-983","TREATMENT","2013-03-26","2013-03-26",51,51],
["CDISCPILOT01","EX","CDISC005","DEV0005",52,"ZANOMALINE",81,"mg","INJECTION","QD","SUBCUTANEOUS","SDS580-983","TREATMENT","2013-03-27","2013-03-27",52,52],
["CDISCPILOT01","EX","CDISC005","DEV0005",53,"ZANOMALINE",81,"mg","INJECTION","QD","SUBCUTANEOUS","SDS580-983","TREATMENT","2013-03-28","2013-03-28",53,53],
["CDISCPILOT01","EX","CDISC005","DEV0005",54,"ZANOMALINE",81,"mg","INJECTION","QD","SUBCUTANEOUS","SDS580-983","TREATMENT","2013-03-29","2013-03-29",54,54],
["CDISCPILOT01","EX","CDISC005","DEV0005",55,"ZANOMALINE",81,"mg","INJECTION","QD","SUBCUTANEOUS","SDS580-983","TREATMENT","2013-03-30","2013-03-30",55,55],
["CDISCPILOT01","EX","CDISC005","DEV0005",56,"ZANOMALINE",81,"mg","INJECTION","QD","SUBCUTANEOUS","SDS580-983","TREATMENT","2013-03-31","2013-03-31",56,56],
["CDISCPILOT01","EX","CDISC005","DEV0005",57,"ZANOMALINE",81,"mg","INJECTION","QD","SUBCUTANEOUS","SDS580-983","TREATMENT","2013-04-01","2013-04-01",57,57],
["CDISCPILOT01","EX","CDISC005","DEV0005",58,"ZANOMALINE",81,"mg","INJECTION","QD","SUBCUTANEOUS","SDS580-983","TREATMENT","2013-04-02","2013-04-02",58,58],
["CDISCPILOT01","EX","CDISC005","DEV0005",59,"ZANOMALINE",81,"mg","INJECTION","QD","SUBCUTANEOUS","SDS580-983","TREATMENT","2013-04-03","2013-04-03",59,59],
["CDISCPILOT01","EX","CDISC005","DEV0005",60,"ZANOMALINE",81,"mg","INJECTION","QD","SUBCUTANEOUS","SDS580-983","TREATMENT","2013-04-04","2013-04-04",60,60],
["CDISCPILOT01","EX","CDISC005","DEV0005",61,"ZANOMALINE",81,"mg","INJECTION","QD","SUBCUTANEOUS","SDS580-983","TREATMENT","2013-04-05","2013-04-05",61,61],
["CDISCPILOT01","EX","CDISC005","DEV0005",62,"ZANOMALINE",81,"mg","INJECTION","QD","SUBCUTANEOUS","SDS580-983","TREATMENT","2013-04-06","2013-04-06",62,62],
["CDISCPILOT01","EX","CDISC005","DEV0005",63,"ZANOMALINE",81,"mg","INJECTION","QD","SUBCUTANEOUS","SDS580-983","TREATMENT","2013-04-07","2013-04-07",63,63],
["CDISCPILOT01","EX","CDISC005","DEV0005",64,"ZANOMALINE",81,"mg","INJECTION","QD","SUBCUTANEOUS","SDS580-983","TREATMENT","2013-04-08","2013-04-08",64,64],
["CDISCPILOT01","EX","CDISC005","DEV0005",65,"ZANOMALINE",81,"mg","INJECTION","QD","SUBCUTANEOUS","SDS580-983","TREATMENT","2013-04-09","2013-04-09",65,65],
["CDISCPILOT01","EX","CDISC005","DEV0005",66,"ZANOMALINE",81,"mg","INJECTION","QD","SUBCUTANEOUS","SDS580-983","TREATMENT","2013-04-10","2013-04-10",66,66],
["CDISCPILOT01","EX","CDISC005","DEV0005",67,"ZANOMALINE",81,"mg","INJECTION","QD","SUBCUTANEOUS","SDS580-983","TREATMENT","2013-04-11","2013-04-11",67,67],
["CDISCPILOT01","EX","CDISC005","DEV0005",68,"ZANOMALINE",81,"mg","INJECTION","QD","SUBCUTANEOUS","SDS580-983","TREATMENT","2013-04-12","2013-04-12",68,68],
["CDISCPILOT01","EX","CDISC005","DEV0005",69,"ZANOMALINE",81,"mg","INJECTION","QD","SUBCUTANEOUS","SDS580-983","TREATMENT","2013-04-13","2013-04-13",69,69],
["CDISCPILOT01","EX","CDISC005","DEV0005",70,"ZANOMALINE",81,"mg","INJECTION","QD","SUBCUTANEOUS","SDS580-983","TREATMENT","2013-04-14","2013-04-14",70,70],
["CDISCPILOT01","EX","CDISC005","DEV0005",71,"ZANOMALINE",81,"mg","INJECTION","QD","SUBCUTANEOUS","SDS580-983","TREATMENT","2013-04-15","2013-04-15",71,71],
["CDISCPILOT01","EX","CDISC005","DEV0005",72,"ZANOMALINE",81,"mg","INJECTION","QD","SUBCUTANEOUS","SDS580-983","TREATMENT","2013-04-16","2013-04-16",72,72],
["CDISCPILOT01","EX","CDISC005","DEV0005",73,"ZANOMALINE",81,"mg","INJECTION","QD","SUBCUTANEOUS","SDS580-983","TREATMENT","2013-04-17","2013-04-17",73,73],
["CDISCPILOT01","EX","CDISC005","DEV0005",74,"ZANOMALINE",81,"mg","INJECTION","QD","SUBCUTANEOUS","SDS580-983","TREATMENT","2013-04-18","2013-04-18",74,74],
["CDISCPILOT01","EX","CDISC005","DEV0005",75,"ZANOMALINE",81,"mg","INJECTION","QD","SUBCUTANEOUS","SDS580-983","TREATMENT","2013-04-19","2013-04-19",75,75],
["CDISCPILOT01","EX","CDISC005","DEV0005",76,"ZANOMALINE",81,"mg","INJECTION","QD","SUBCUTANEOUS","SDS580-983","TREATMENT","2013-04-20","2013-04-20",76,76],
["CDISCPILOT01","EX","CDISC005","DEV0005",77,"ZANOMALINE",81,"mg","INJECTION","QD","SUBCUTANEOUS","SDS580-983","TREATMENT","2013-04-21","2013-04-21",77,77],
["CDISCPILOT01","EX","CDISC005","DEV0005",78,"ZANOMALINE",81,"mg","INJECTION","QD","SUBCUTANEOUS","SDS580-983","TREATMENT","2013-04-22","2013-04-22",78,78],
["CDISCPILOT01","EX","CDISC005","DEV0005",79,"ZANOMALINE",81,"mg","INJECTION","QD","SUBCUTANEOUS","SDS580-983","TREATMENT","2013-04-23","2013-04-23",79,79],
["CDISCPILOT01","EX","CDISC005","DEV0005",80,"ZANOMALINE",81,"mg","INJECTION","QD","SUBCUTANEOUS","SDS580-983","TREATMENT","2013-04-24","2013-04-24",80,80],
["CDISCPILOT01","EX","CDISC005","DEV0005",81,"ZANOMALINE",81,"mg","INJECTION","QD","SUBCUTANEOUS","SDS580-983","TREATMENT","2013-04-25","2013-04-25",81,81],
["CDISCPILOT01","EX","CDISC005","DEV0005",82,"ZANOMALINE",81,"mg","INJECTION","QD","SUBCUTANEOUS","SDS580-983","TREATMENT","2013-04-26","2013-04-26",82,82],
["CDISCPILOT01","EX","CDISC005","DEV0005",83,"ZANOMALINE",81,"mg","INJECTION","QD","SUBCUTANEOUS","SDS580-983","TREATMENT","2013-04-27","2013-04-27",83,83],
["CDISCPILOT01","EX","CDISC005","DEV0005",84,"ZANOMALINE",81,"mg","INJECTION","QD","SUBCUTANEOUS","SDS580-983","TREATMENT","2013-04-28","2013-04-28",84,84],
["CDISCPILOT01","EX","CDISC005","DEV0005",85,"ZANOMALINE",81,"mg","INJECTION","QD","SUBCUTANEOUS","SDS580-983","TREATMENT","2013-04-29","2013-04-29",85,85],
["CDISCPILOT01","EX","CDISC005","DEV0005",86,"ZANOMALINE",81,"mg","INJECTION","QD","SUBCUTANEOUS","SDS580-983","TREATMENT","2013-04-30","2013-04-30",86,86],
["CDISCPILOT01","EX","CDISC005","DEV0005",87,"ZANOMALINE",81,"mg","INJECTION","QD","SUBCUTANEOUS","SDS580-983","TREATMENT","2013-05-01","2013-05-01",87,87],
["CDISCPILOT01","EX","CDISC005","DEV0005",88,"ZANOMALINE",81,"mg","INJECTION","QD","SUBCUTANEOUS","SDS580-983","TREATMENT","2013-05-02","2013-05-02",88,88],
["CDISCPILOT01","EX","CDISC005","DEV0005",89,"ZANOMALINE",81,"mg","INJECTION","QD","SUBCUTANEOUS","SDS580-983","TREATMENT","2013-05-03","2013-05-03",89,89],
["CDISCPILOT01","EX","CDISC005","DEV0005",90,"ZANOMALINE",81,"mg","INJECTION","QD","SUBCUTANEOUS","SDS580-983","TREATMENT","2013-05-04","2013-05-04",90,90],
["CDISCPILOT01","EX","CDISC005","DEV0005",91,"ZANOMALINE",81,"mg","INJECTION","QD","SUBCUTANEOUS","SDS580-983","TREATMENT","2013-05-05","2013-05-05",91,91],
["CDISCPILOT01","EX","CDISC005","DEV0005",92,"ZANOMALINE",81,"mg","INJECTION","QD","SUBCUTANEOUS","SDS580-983","TREATMENT","2013-05-06","2013-05-06",92,92],
["CDISCPILOT01","EX","CDISC005","DEV0005",93,"ZANOMALINE",81,"mg","INJECTION","QD","SUBCUTANEOUS","SDS580-983","TREATMENT","2013-05-07","2013-05-07",93,93],
["CDISCPILOT01","EX","CDISC005","DEV0005",94,"ZANOMALINE",81,"mg","INJECTION","QD","SUBCUTANEOUS","SDS580-983","TREATMENT","2013-05-08","2013-05-08",94,94],
["CDISCPILOT01","EX","CDISC005","DEV0005",95,"ZANOMALINE",81,"mg","INJECTION","QD","SUBCUTANEOUS","SDS580-983","TREATMENT","2013-05-09","2013-05-09",95,95],
["CDISCPILOT01","EX","CDISC005","DEV0005",96,"ZANOMALINE",81,"mg","INJECTION","QD","SUBCUTANEOUS","SDS580-983","TREATMENT","2013-05-10","2013-05-10",96,96],
["CDISCPILOT01","EX","CDISC005","DEV0005",97,"ZANOMALINE",81,"mg","INJECTION","QD","SUBCUTANEOUS","SDS580-983","TREATMENT","2013-05-11","2013-05-11",97,97],
["CDISCPILOT01","EX","CDISC005","DEV0005",98,"ZANOMALINE",81,"mg","INJECTION","QD","SUBCUTANEOUS","SDS580-983","TREATMENT","2013-05-12","2013-05-12",98,98],
["CDISCPILOT01","EX","CDISC005","DEV0005",99,"ZANOMALINE",81,"mg","INJECTION","QD","SUBCUTANEOUS","SDS580-983","TREATMENT","2013-05-13","2013-05-13",99,99],
["CDISCPILOT01","EX","CDISC005","DEV0005",100,"ZANOMALINE",81,"mg","INJECTION","QD","SUBCUTANEOUS","SDS580-983","TREATMENT","2013-05-14","2013-05-14",100,100],
["CDISCPILOT01","EX","CDISC005","DEV0005",101,"ZANOMALINE",81,"mg","INJECTION","QD","SUBCUTANEOUS","SDS580-983","TREATMENT","2013-05-15","2013-05-15",101,101],
["CDISCPILOT01","EX","CDISC005","DEV0005",102,"ZANOMALINE",81,"mg","INJECTION","QD","SUBCUTANEOUS","SDS580-983","TREATMENT","2013-05-16","2013-05-16",102,102],
["CDISCPILOT01","EX","CDISC005","DEV0005",103,"ZANOMALINE",81,"mg","INJECTION","QD","SUBCUTANEOUS","SDS580-983","TREATMENT","2013-05-17","2013-05-17",103,103],
["CDISCPILOT01","EX","CDISC005","DEV0005",104,"ZANOMALINE",81,"mg","INJECTION","QD","SUBCUTANEOUS","SDS580-983","TREATMENT","2013-05-18","2013-05-18",104,104],
["CDISCPILOT01","EX","CDISC005","DEV0005",105,"ZANOMALINE",81,"mg","INJECTION","QD","SUBCUTANEOUS","SDS580-983","TREATMENT","2013-05-19","2013-05-19",105,105],
["CDISCPILOT01","EX","CDISC005","DEV0005",106,"ZANOMALINE",81,"mg","INJECTION","QD","SUBCUTANEOUS","SDS580-983","TREATMENT","2013-05-20","2013-05-20",106,106],
["CDISCPILOT01","EX","CDISC005","DEV0005",107,"ZANOMALINE",81,"mg","INJECTION","QD","SUBCUTANEOUS","SDS580-983","TREATMENT","2013-05-21","2013-05-21",107,107],
["CDISCPILOT01","EX","CDISC005","DEV0005",108,"ZANOMALINE",81,"mg","INJECTION","QD","SUBCUTANEOUS","SDS580-983","TREATMENT","2013-05-22","2013-05-22",108,108],
["CDISCPILOT01","EX","CDISC005","DEV0005",109,"ZANOMALINE",81,"mg","INJECTION","QD","SUBCUTANEOUS","SDS580-983","TREATMENT","2013-05-23","2013-05-23",109,109],
["CDISCPILOT01","EX","CDISC005","DEV0005",110,"ZANOMALINE",81,"mg","INJECTION","QD","SUBCUTANEOUS","SDS580-983","TREATMENT","2013-05-24","2013-05-24",110,110],
["CDISCPILOT01","EX","CDISC005","DEV0005",111,"ZANOMALINE",81,"mg","INJECTION","QD","SUBCUTANEOUS","SDS580-983","TREATMENT","2013-05-25","2013-05-25",111,111],
["CDISCPILOT01","EX","CDISC005","DEV0005",112,"ZANOMALINE",81,"mg","INJECTION","QD","SUBCUTANEOUS","SDS580-983","TREATMENT","2013-05-26","2013-05-26",112,112],
["CDISCPILOT01","EX","CDISC005","DEV0005",113,"ZANOMALINE",81,"mg","INJECTION","QD","SUBCUTANEOUS","SDS580-983","TREATMENT","2013-05-27","2013-05-27",113,113],
["CDISCPILOT01","EX","CDISC005","DEV0005",114,"ZANOMALINE",81,"mg","INJECTION","QD","SUBCUTANEOUS","SDS580-983","TREATMENT","2013-05-28","2013-05-28",114,114],
["CDISCPILOT01","EX","CDISC005","DEV0005",115,"ZANOMALINE",81,"mg","INJECTION","QD","SUBCUTANEOUS","SDS580-983","TREATMENT","2013-05-29","2013-05-29",115,115],
["CDISCPILOT01","EX","CDISC005","DEV0005",116,"ZANOMALINE",81,"mg","INJECTION","QD","SUBCUTANEOUS","SDS580-983","TREATMENT","2013-05-30","2013-05-30",116,116],
["CDISCPILOT01","EX","CDISC005","DEV0005",117,"ZANOMALINE",81,"mg","INJECTION","QD","SUBCUTANEOUS","SDS580-983","TREATMENT","2013-05-31","2013-05-31",117,117],
["CDISCPILOT01","EX","CDISC005","DEV0005",118,"ZANOMALINE",81,"mg","INJECTION","QD","SUBCUTANEOUS","SDS580-983","TREATMENT","2013-06-01","2013-06-01",118,118],
["CDISCPILOT01","EX","CDISC005","DEV0005",119,"ZANOMALINE",81,"mg","INJECTION","QD","SUBCUTANEOUS","SDS580-983","TREATMENT","2013-06-02","2013-06-02",119,119],
["CDISCPILOT01","EX","CDISC005","DEV0005",120,"ZANOMALINE",81,"mg","INJECTION","QD","SUBCUTANEOUS","SDS580-983","TREATMENT","2013-06-03","2013-06-03",120,120],
["CDISCPILOT01","EX","CDISC005","DEV0005",121,"ZANOMALINE",81,"mg","INJECTION","QD","SUBCUTANEOUS","SDS580-983","TREATMENT","2013-06-04","2013-06-04",121,121],
["CDISCPILOT01","EX","CDISC005","DEV0005",122,"ZANOMALINE",81,"mg","INJECTION","QD","SUBCUTANEOUS","SDS580-983","TREATMENT","2013-06-05","2013-06-05",122,122],
["CDISCPILOT01","EX","CDISC005","DEV0005",123,"ZANOMALINE",81,"mg","INJECTION","QD","SUBCUTANEOUS","SDS580-983","TREATMENT","2013-06-06","2013-06-06",123,123],
["CDISCPILOT01","EX","CDISC005","DEV0005",124,"ZANOMALINE",81,"mg","INJECTION","QD","SUBCUTANEOUS","SDS580-983","TREATMENT","2013-06-07","2013-06-07",124,124],
["CDISCPILOT01","EX","CDISC005","DEV0005",125,"ZANOMALINE",81,"mg","INJECTION","QD","SUBCUTANEOUS","SDS580-983","TREATMENT","2013-06-08","2013-06-08",125,125],
["CDISCPILOT01","EX","CDISC005","DEV0005",126,"ZANOMALINE",81,"mg","INJECTION","QD","SUBCUTANEOUS","SDS580-983","TREATMENT","2013-06-09","2013-06-09",126,126],
["CDISCPILOT01","EX","CDISC005","DEV0005",127,"ZANOMALINE",81,"mg","INJECTION","QD","SUBCUTANEOUS","SDS580-983","TREATMENT","2013-06-10","2013-06-10",127,127],
["CDISCPILOT01","EX","CDISC005","DEV0005",128,"ZANOMALINE",81,"mg","INJECTION","QD","SUBCUTANEOUS","SDS580-983","TREATMENT","2013-06-11","2013-06-11",128,128],
["CDISCPILOT01","EX","CDISC005","DEV0005",129,"ZANOMALINE",81,"mg","INJECTION","QD","SUBCUTANEOUS","SDS580-983","TREATMENT","2013-06-12","2013-06-12",129,129],
["CDISCPILOT01","EX","CDISC005","DEV0005",130,"ZANOMALINE",81,"mg","INJECTION","QD","SUBCUTANEOUS","SDS580-983","TREATMENT","2013-06-13","2013-06-13",130,130],
["CDISCPILOT01","EX","CDISC005","DEV0005",131,"ZANOMALINE",81,"mg","INJECTION","QD","SUBCUTANEOUS","SDS580-983","TREATMENT","2013-06-14","2013-06-14",131,131],
["CDISCPILOT01","EX","CDISC005","DEV0005",132,"ZANOMALINE",81,"mg","INJECTION","QD","SUBCUTANEOUS","SDS580-983","TREATMENT","2013-06-15","2013-06-15",132,132],
["CDISCPILOT01","EX","CDISC005","DEV0005",133,"ZANOMALINE",81,"mg","INJECTION","QD","SUBCUTANEOUS","SDS580-983","TREATMENT","2013-06-16","2013-06-16",133,133],
["CDISCPILOT01","EX","CDISC005","DEV0005",134,"ZANOMALINE",81,"mg","INJECTION","QD","SUBCUTANEOUS","SDS580-983","TREATMENT","2013-06-17","2013-06-17",134,134],
["CDISCPILOT01","EX","CDISC005","DEV0005",135,"ZANOMALINE",81,"mg","INJECTION","QD","SUBCUTANEOUS","SDS580-983","TREATMENT","2013-06-18","2013-06-18",135,135],
["CDISCPILOT01","EX","CDISC005","DEV0005",136,"ZANOMALINE",81,"mg","INJECTION","QD","SUBCUTANEOUS","SDS580-983","TREATMENT","2013-06-19","2013-06-19",136,136],
["CDISCPILOT01","EX","CDISC005","DEV0005",137,"ZANOMALINE",81,"mg","INJECTION","QD","SUBCUTANEOUS","SDS580-983","TREATMENT","2013-06-20","2013-06-20",137,137],
["CDISCPILOT01","EX","CDISC005","DEV0005",138,"ZANOMALINE",81,"mg","INJECTION","QD","SUBCUTANEOUS","SDS580-983","TREATMENT","2013-06-21","2013-06-21",138,138],
["CDISCPILOT01","EX","CDISC005","DEV0005",139,"ZANOMALINE",81,"mg","INJECTION","QD","SUBCUTANEOUS","SDS580-983","TREATMENT","2013-06-22","2013-06-22",139,139],
["CDISCPILOT01","EX","CDISC005","DEV0005",140,"ZANOMALINE",81,"mg","INJECTION","QD","SUBCUTANEOUS","SDS580-983","TREATMENT","2013-06-23","2013-06-23",140,140],
["CDISCPILOT01","EX","CDISC005","DEV0005",141,"ZANOMALINE",81,"mg","INJECTION","QD","SUBCUTANEOUS","SDS580-983","TREATMENT","2013-06-24","2013-06-24",141,141],
["CDISCPILOT01","EX","CDISC005","DEV0005",142,"ZANOMALINE",81,"mg","INJECTION","QD","SUBCUTANEOUS","SDS580-983","TREATMENT","2013-06-25","2013-06-25",142,142],
["CDISCPILOT01","EX","CDISC005","DEV0005",143,"ZANOMALINE",81,"mg","INJECTION","QD","SUBCUTANEOUS","SDS580-983","TREATMENT","2013-06-26","2013-06-26",143,143],
["CDISCPILOT01","EX","CDISC005","DEV0005",144,"ZANOMALINE",81,"mg","INJECTION","QD","SUBCUTANEOUS","SDS580-983","TREATMENT","2013-06-27","2013-06-27",144,144],
["CDISCPILOT01","EX","CDISC005","DEV0005",145,"ZANOMALINE",81,"mg","INJECTION","QD","SUBCUTANEOUS","SDS580-983","TREATMENT","2013-06-28","2013-06-28",145,145],
["CDISCPILOT01","EX","CDISC005","DEV0005",146,"ZANOMALINE",81,"mg","INJECTION","QD","SUBCUTANEOUS","SDS580-983","TREATMENT","2013-06-29","2013-06-29",146,146],
["CDISCPILOT01","EX","CDISC005","DEV0005",147,"ZANOMALINE",81,"mg","INJECTION","QD","SUBCUTANEOUS","SDS580-983","TREATMENT","2013-06-30","2013-06-30",147,147],
["CDISCPILOT01","EX","CDISC005","DEV0005",148,"ZANOMALINE",81,"mg","INJECTION","QD","SUBCUTANEOUS","SDS580-983","TREATMENT","2013-07-01","2013-07-01",148,148],
["CDISCPILOT01","EX","CDISC005","DEV0005",149,"ZANOMALINE",81,"mg","INJECTION","QD","SUBCUTANEOUS","SDS580-983","TREATMENT","2013-07-02","2013-07-02",149,149],
["CDISCPILOT01","EX","CDISC005","DEV0005",150,"ZANOMALINE",81,"mg","INJECTION","QD","SUBCUTANEOUS","SDS580-983","TREATMENT","2013-07-03","2013-07-03",150,150],
["CDISCPILOT01","EX","CDISC005","DEV0005",151,"ZANOMALINE",81,"mg","INJECTION","QD","SUBCUTANEOUS","SDS580-983","TREATMENT","2013-07-04","2013-07-04",151,151],
["CDISCPILOT01","EX","CDISC005","DEV0005",152,"ZANOMALINE",81,"mg","INJECTION","QD","SUBCUTANEOUS","SDS580-983","TREATMENT","2013-07-05","2013-07-05",152,152],
["CDISCPILOT01","EX","CDISC005","DEV0005",153,"ZANOMALINE",81,"mg","INJECTION","QD","SUBCUTANEOUS","SDS580-983","TREATMENT","2013-07-06","2013-07-06",153,153],
["CDISCPILOT01","EX","CDISC005","DEV0005",154,"ZANOMALINE",81,"mg","INJECTION","QD","SUBCUTANEOUS","SDS580-983","TREATMENT","2013-07-07","2013-07-07",154,154],
["CDISCPILOT01","EX","CDISC005","DEV0005",155,"ZANOMALINE",81,"mg","INJECTION","QD","SUBCUTANEOUS","SDS580-983","TREATMENT","2013-07-08","2013-07-08",155,155],
["CDISCPILOT01","EX","CDISC005","DEV0005",156,"ZANOMALINE",81,"mg","INJECTION","QD","SUBCUTANEOUS","SDS580-983","TREATMENT","2013-07-09","2013-07-09",156,156],
["CDISCPILOT01","EX","CDISC005","DEV0005",157,"ZANOMALINE",81,"mg","INJECTION","QD","SUBCUTANEOUS","SDS580-983","TREATMENT","2013-07-10","2013-07-10",157,157],
["CDISCPILOT01","EX","CDISC005","DEV0005",158,"ZANOMALINE",81,"mg","INJECTION","QD","SUBCUTANEOUS","SDS580-983","TREATMENT","2013-07-11","2013-07-11",158,158],
["CDISCPILOT01","EX","CDISC005","DEV0005",159,"ZANOMALINE",81,"mg","INJECTION","QD","SUBCUTANEOUS","SDS580-983","TREATMENT","2013-07-12","2013-07-12",159,159],
["CDISCPILOT01","EX","CDISC005","DEV0005",160,"ZANOMALINE",81,"mg","INJECTION","QD","SUBCUTANEOUS","SDS580-983","TREATMENT","2013-07-13","2013-07-13",160,160],
["CDISCPILOT01","EX","CDISC005","DEV0005",161,"ZANOMALINE",81,"mg","INJECTION","QD","SUBCUTANEOUS","SDS580-983","TREATMENT","2013-07-14","2013-07-14",161,161],
["CDISCPILOT01","EX","CDISC005","DEV0005",162,"ZANOMALINE",81,"mg","INJECTION","QD","SUBCUTANEOUS","SDS580-983","TREATMENT","2013-07-15","2013-07-15",162,162],
["CDISCPILOT01","EX","CDISC005","DEV0005",163,"ZANOMALINE",81,"mg","INJECTION","QD","SUBCUTANEOUS","SDS580-983","TREATMENT","2013-07-16","2013-07-16",163,163],
["CDISCPILOT01","EX","CDISC005","DEV0005",164,"ZANOMALINE",81,"mg","INJECTION","QD","SUBCUTANEOUS","SDS580-983","TREATMENT","2013-07-17","2013-07-17",164,164],
["CDISCPILOT01","EX","CDISC005","DEV0005",165,"ZANOMALINE",81,"mg","INJECTION","QD","SUBCUTANEOUS","SDS580-983","TREATMENT","2013-07-18","2013-07-18",165,165],
["CDISCPILOT01","EX","CDISC005","DEV0005",166,"ZANOMALINE",81,"mg","INJECTION","QD","SUBCUTANEOUS","SDS580-983","TREATMENT","2013-07-19","2013-07-19",166,166],
["CDISCPILOT01","EX","CDISC005","DEV0005",167,"ZANOMALINE",81,"mg","INJECTION","QD","SUBCUTANEOUS","SDS580-983","TREATMENT","2013-07-20","2013-07-20",167,167],
["CDISCPILOT01","EX","CDISC005","DEV0005",168,"ZANOMALINE",81,"mg","INJECTION","QD","SUBCUTANEOUS","SDS580-983","TREATMENT","2013-07-21","2013-07-21",168,168],
["CDISCPILOT01","EX","CDISC005","DEV0005",169,"ZANOMALINE",81,"mg","INJECTION","QD","SUBCUTANEOUS","SDS580-983","TREATMENT","2013-07-22","2013-07-22",169,169],
["CDISCPILOT01","EX","CDISC005","DEV0005",170,"ZANOMALINE",81,"mg","INJECTION","QD","SUBCUTANEOUS","SDS580-983","TREATMENT","2013-07-23","2013-07-23",170,170],
["CDISCPILOT01","EX","CDISC005","DEV0005",171,"ZANOMALINE",81,"mg","INJECTION","QD","SUBCUTANEOUS","SDS580-983","TREATMENT","2013-07-24","2013-07-24",171,171],
["CDISCPILOT01","EX","CDISC005","DEV0005",172,"ZANOMALINE",81,"mg","INJECTION","QD","SUBCUTANEOUS","SDS580-983","TREATMENT","2013-07-25","2013-07-25",172,172],
["CDISCPILOT01","EX","CDISC005","DEV0005",173,"ZANOMALINE",81,"mg","INJECTION","QD","SUBCUTANEOUS","SDS580-983","TREATMENT","2013-07-26","2013-07-26",173,173],
["CDISCPILOT01","EX","CDISC005","DEV0005",174,"ZANOMALINE",81,"mg","INJECTION","QD","SUBCUTANEOUS","SDS580-983","TREATMENT","2013-07-27","2013-07-27",174,174],
["CDISCPILOT01","EX","CDISC005","DEV0005",175,"ZANOMALINE",81,"mg","INJECTION","QD","SUBCUTANEOUS","SDS580-983","TREATMENT","2013-07-28","2013-07-28",175,175],
["CDISCPILOT01","EX","CDISC005","DEV0005",176,"ZANOMALINE",81,"mg","INJECTION","QD","SUBCUTANEOUS","SDS580-983","TREATMENT","2013-07-29","2013-07-29",176,176],
["CDISCPILOT01","EX","CDISC005","DEV0005",177,"ZANOMALINE",81,"mg","INJECTION","QD","SUBCUTANEOUS","SDS580-983","TREATMENT","2013-07-30","2013-07-30",177,177],
["CDISCPILOT01","EX","CDISC005","DEV0005",178,"ZANOMALINE",54,"mg","INJECTION","QD","SUBCUTANEOUS","SDS580-359","TREATMENT","2013-07-31","2013-07-31",178,178],
["CDISCPILOT01","EX","CDISC005","DEV0005",179,"ZANOMALINE",54,"mg","INJECTION","QD","SUBCUTANEOUS","SDS580-359","TREATMENT","2013-08-01","2013-08-01",179,179],
["CDISCPILOT01","EX","CDISC005","DEV0005",180,"ZANOMALINE",54,"mg","INJECTION","QD","SUBCUTANEOUS","SDS580-359","TREATMENT","2013-08-02","2013-08-02",180,180],
["CDISCPILOT01","EX","CDISC005","DEV0005",181,"ZANOMALINE",54,"mg","INJECTION","QD","SUBCUTANEOUS","SDS580-359","TREATMENT","2013-08-03","2013-08-03",181,181],
["CDISCPILOT01","EX","CDISC005","DEV0005",182,"ZANOMALINE",54,"mg","INJECTION","QD","SUBCUTANEOUS","SDS580-359","TREATMENT","2013-08-04","2013-08-04",182,182],
["CDISCPILOT01","EX","CDISC005","DEV0005",183,"ZANOMALINE",54,"mg","INJECTION","QD","SUBCUTANEOUS","SDS580-359","TREATMENT","2013-08-05","2013-08-05",183,183],
["CDISCPILOT01","EX","CDISC005","DEV0005",184,"ZANOMALINE",54,"mg","INJECTION","QD","SUBCUTANEOUS","SDS580-359","TREATMENT","2013-08-06","2013-08-06",184,184],
["CDISCPILOT01","EX","CDISC006","DEV0006",1,"ZANOMALINE",54,"mg","INJECTION","QD","SUBCUTANEOUS","SDS580-359","TREATMENT","2013-03-19","2013-03-19",1,1],
["CDISCPILOT01","EX","CDISC006","DEV0006",2,"ZANOMALINE",54,"mg","INJECTION","QD","SUBCUTANEOUS","SDS580-359","TREATMENT","2013-03-20","2013-03-20",2,2],
["CDISCPILOT01","EX","CDISC006","DEV0006",3,"ZANOMALINE",54,"mg","INJECTION","QD","SUBCUTANEOUS","SDS580-359","TREATMENT","2013-03-21","2013-03-21",3,3],
["CDISCPILOT01","EX","CDISC006","DEV0006",4,"ZANOMALINE",54,"mg","INJECTION","QD","SUBCUTANEOUS","SDS580-359","TREATMENT","2013-03-22","2013-03-22",4,4],
["CDISCPILOT01","EX","CDISC006","DEV0006",5,"ZANOMALINE",54,"mg","INJECTION","QD","SUBCUTANEOUS","SDS580-359","TREATMENT","2013-03-23","2013-03-23",5,5],
["CDISCPILOT01","EX","CDISC006","DEV0006",6,"ZANOMALINE",54,"mg","INJECTION","QD","SUBCUTANEOUS","SDS580-359","TREATMENT","2013-03-24","2013-03-24",6,6],
["CDISCPILOT01","EX","CDISC006","DEV0006",7,"ZANOMALINE",54,"mg","INJECTION","QD","SUBCUTANEOUS","SDS580-359","TREATMENT","2013-03-25","2013-03-25",7,7],
["CDISCPILOT01","EX","CDISC006","DEV0006",8,"ZANOMALINE",54,"mg","INJECTION","QD","SUBCUTANEOUS","SDS580-359","TREATMENT","2013-03-26","2013-03-26",8,8],
["CDISCPILOT01","EX","CDISC006","DEV0006",9,"ZANOMALINE",54,"mg","INJECTION","QD","SUBCUTANEOUS","SDS580-359","TREATMENT","2013-03-27","2013-03-27",9,9],
["CDISCPILOT01","EX","CDISC006","DEV0006",10,"ZANOMALINE",54,"mg","INJECTION","QD","SUBCUTANEOUS","SDS580-359","TREATMENT","2013-03-28","2013-03-28",10,10],
["CDISCPILOT01","EX","CDISC006","DEV0006",11,"ZANOMALINE",54,"mg","INJECTION","QD","SUBCUTANEOUS","SDS580-359","TREATMENT","2013-03-29","2013-03-29",11,11],
["CDISCPILOT01","EX","CDISC006","DEV0006",12,"ZANOMALINE",54,"mg","INJECTION","QD","SUBCUTANEOUS","SDS580-359","TREATMENT","2013-03-30","2013-03-30",12,12],
["CDISCPILOT01","EX","CDISC006","DEV0006",13,"ZANOMALINE",54,"mg","INJECTION","QD","SUBCUTANEOUS","SDS580-359","TREATMENT","2013-03-31","2013-03-31",13,13],
["CDISCPILOT01","EX","CDISC006","DEV0006",14,"ZANOMALINE",54,"mg","INJECTION","QD","SUBCUTANEOUS","SDS580-359","TREATMENT","2013-04-01","2013-04-01",14,14],
["CDISCPILOT01","EX","CDISC006","DEV0006",15,"ZANOMALINE",54,"mg","INJECTION","QD","SUBCUTANEOUS","SDS580-359","TREATMENT","2013-04-02","2013-04-02",15,15],
["CDISCPILOT01","EX","CDISC006","DEV0006",16,"ZANOMALINE",54,"mg","INJECTION","QD","SUBCUTANEOUS","SDS580-359","TREATMENT","2013-04-03","2013-04-03",16,16],
["CDISCPILOT01","EX","CDISC006","DEV0006",17,"ZANOMALINE",54,"mg","INJECTION","QD","SUBCUTANEOUS","SDS580-359","TREATMENT","2013-04-04","2013-04-04",17,17],
["CDISCPILOT01","EX","CDISC006","DEV0006",18,"ZANOMALINE",54,"mg","INJECTION","QD","SUBCUTANEOUS","SDS580-359","TREATMENT","2013-04-05","2013-04-05",18,18],
["CDISCPILOT01","EX","CDISC006","DEV0006",19,"ZANOMALINE",54,"mg","INJECTION","QD","SUBCUTANEOUS","SDS580-359","TREATMENT","2013-04-06","2013-04-06",19,19],
["CDISCPILOT01","EX","CDISC006","DEV0006",20,"ZANOMALINE",54,"mg","INJECTION","QD","SUBCUTANEOUS","SDS580-359","TREATMENT","2013-04-07","2013-04-07",20,20],
["CDISCPILOT01","EX","CDISC006","DEV0006",21,"ZANOMALINE",54,"mg","INJECTION","QD","SUBCUTANEOUS","SDS580-359","TREATMENT","2013-04-08","2013-04-08",21,21],
["CDISCPILOT01","EX","CDISC006","DEV0006",22,"ZANOMALINE",54,"mg","INJECTION","QD","SUBCUTANEOUS","SDS580-359","TREATMENT","2013-04-09","2013-04-09",22,22],
["CDISCPILOT01","EX","CDISC006","DEV0006",23,"ZANOMALINE",54,"mg","INJECTION","QD","SUBCUTANEOUS","SDS580-359","TREATMENT","2013-04-10","2013-04-10",23,23],
["CDISCPILOT01","EX","CDISC006","DEV0006",24,"ZANOMALINE",54,"mg","INJECTION","QD","SUBCUTANEOUS","SDS580-359","TREATMENT","2013-04-11","2013-04-11",24,24],
["CDISCPILOT01","EX","CDISC006","DEV0006",25,"ZANOMALINE",54,"mg","INJECTION","QD","SUBCUTANEOUS","SDS580-359","TREATMENT","2013-04-12","2013-04-12",25,25],
["CDISCPILOT01","EX","CDISC006","DEV0006",26,"ZANOMALINE",54,"mg","INJECTION","QD","SUBCUTANEOUS","SDS580-359","TREATMENT","2013-04-13","2013-04-13",26,26],
["CDISCPILOT01","EX","CDISC006","DEV0006",27,"ZANOMALINE",54,"mg","INJECTION","QD","SUBCUTANEOUS","SDS580-359","TREATMENT","2013-04-14","2013-04-14",27,27],
["CDISCPILOT01","EX","CDISC006","DEV0006",28,"ZANOMALINE",54,"mg","INJECTION","QD","SUBCUTANEOUS","SDS580-359","TREATMENT","2013-04-15","2013-04-15",28,28],
["CDISCPILOT01","EX","CDISC006","DEV0006",29,"ZANOMALINE",54,"mg","INJECTION","QD","SUBCUTANEOUS","SDS580-359","TREATMENT","2013-04-16","2013-04-16",29,29],
["CDISCPILOT01","EX","CDISC006","DEV0006",30,"ZANOMALINE",54,"mg","INJECTION","QD","SUBCUTANEOUS","SDS580-359","TREATMENT","2013-04-17","2013-04-17",30,30],
["CDISCPILOT01","EX","CDISC006","DEV0006",31,"ZANOMALINE",54,"mg","INJECTION","QD","SUBCUTANEOUS","SDS580-359","TREATMENT","2013-04-18","2013-04-18",31,31],
["CDISCPILOT01","EX","CDISC006","DEV0006",32,"ZANOMALINE",54,"mg","INJECTION","QD","SUBCUTANEOUS","SDS580-359","TREATMENT","2013-04-19","2013-04-19",32,32],
["CDISCPILOT01","EX","CDISC006","DEV0006",33,"ZANOMALINE",54,"mg","INJECTION","QD","SUBCUTANEOUS","SDS580-359","TREATMENT","2013-04-20","2013-04-20",33,33],
["CDISCPILOT01","EX","CDISC006","DEV0006",34,"ZANOMALINE",54,"mg","INJECTION","QD","SUBCUTANEOUS","SDS580-359","TREATMENT","2013-04-21","2013-04-21",34,34],
["CDISCPILOT01","EX","CDISC006","DEV0006",35,"ZANOMALINE",54,"mg","INJECTION","QD","SUBCUTANEOUS","SDS580-359","TREATMENT","2013-04-22","2013-04-22",35,35],
["CDISCPILOT01","EX","CDISC006","DEV0006",36,"ZANOMALINE",54,"mg","INJECTION","QD","SUBCUTANEOUS","SDS580-359","TREATMENT","2013-04-23","2013-04-23",36,36],
["CDISCPILOT01","EX","CDISC006","DEV0006",37,"ZANOMALINE",54,"mg","INJECTION","QD","SUBCUTANEOUS","SDS580-359","TREATMENT","2013-04-24","2013-04-24",37,37],
["CDISCPILOT01","EX","CDISC006","DEV0006",38,"ZANOMALINE",54,"mg","INJECTION","QD","SUBCUTANEOUS","SDS580-359","TREATMENT","2013-04-25","2013-04-25",38,38],
["CDISCPILOT01","EX","CDISC006","DEV0006",39,"ZANOMALINE",54,"mg","INJECTION","QD","SUBCUTANEOUS","SDS580-359","TREATMENT","2013-04-26","2013-04-26",39,39],
["CDISCPILOT01","EX","CDISC006","DEV0006",40,"ZANOMALINE",54,"mg","INJECTION","QD","SUBCUTANEOUS","SDS580-359","TREATMENT","2013-04-27","2013-04-27",40,40],
["CDISCPILOT01","EX","CDISC006","DEV0006",41,"ZANOMALINE",54,"mg","INJECTION","QD","SUBCUTANEOUS","SDS580-359","TREATMENT","2013-04-28","2013-04-28",41,41],
["CDISCPILOT01","EX","CDISC006","DEV0006",42,"ZANOMALINE",54,"mg","INJECTION","QD","SUBCUTANEOUS","SDS580-359","TREATMENT","2013-04-29","2013-04-29",42,42],
["CDISCPILOT01","EX","CDISC006","DEV0006",43,"ZANOMALINE",54,"mg","INJECTION","QD","SUBCUTANEOUS","SDS580-359","TREATMENT","2013-04-30","2013-04-30",43,43],
["CDISCPILOT01","EX","CDISC007","DEV0007",1,"ZANOMALINE",54,"mg","INJECTION","QD","SUBCUTANEOUS","SDS580-359","TREATMENT","2013-01-05","2013-01-05",1,1],
["CDISCPILOT01","EX","CDISC007","DEV0007",2,"ZANOMALINE",54,"mg","INJECTION","QD","SUBCUTANEOUS","SDS580-359","TREATMENT","2013-01-06","2013-01-06",2,2],
["CDISCPILOT01","EX","CDISC007","DEV0007",3,"ZANOMALINE",54,"mg","INJECTION","QD","SUBCUTANEOUS","SDS580-359","TREATMENT","2013-01-07","2013-01-07",3,3],
["CDISCPILOT01","EX","CDISC007","DEV0007",4,"ZANOMALINE",54,"mg","INJECTION","QD","SUBCUTANEOUS","SDS580-359","TREATMENT","2013-01-08","2013-01-08",4,4],
["CDISCPILOT01","EX","CDISC007","DEV0007",5,"ZANOMALINE",54,"mg","INJECTION","QD","SUBCUTANEOUS","SDS580-359","TREATMENT","2013-01-09","2013-01-09",5,5],
["CDISCPILOT01","EX","CDISC007","DEV0007",6,"ZANOMALINE",54,"mg","INJECTION","QD","SUBCUTANEOUS","SDS580-359","TREATMENT","2013-01-10","2013-01-10",6,6],
["CDISCPILOT01","EX","CDISC007","DEV0007",7,"ZANOMALINE",54,"mg","INJECTION","QD","SUBCUTANEOUS","SDS580-359","TREATMENT","2013-01-11","2013-01-11",7,7],
["CDISCPILOT01","EX","CDISC007","DEV0007",8,"ZANOMALINE",54,"mg","INJECTION","QD","SUBCUTANEOUS","SDS580-359","TREATMENT","2013-01-12","2013-01-12",8,8],
["CDISCPILOT01","EX","CDISC007","DEV0007",9,"ZANOMALINE",54,"mg","INJECTION","QD","SUBCUTANEOUS","SDS580-359","TREATMENT","2013-01-13","2013-01-13",9,9],
["CDISCPILOT01","EX","CDISC007","DEV0007",10,"ZANOMALINE",54,"mg","INJECTION","QD","SUBCUTANEOUS","SDS580-359","TREATMENT","2013-01-14","2013-01-14",10,10],
["CDISCPILOT01","EX","CDISC007","DEV0007",11,"ZANOMALINE",54,"mg","INJECTION","QD","SUBCUTANEOUS","SDS580-359","TREATMENT","2013-01-15","2013-01-15",11,11],
["CDISCPILOT01","EX","CDISC007","DEV0007",12,"ZANOMALINE",54,"mg","INJECTION","QD","SUBCUTANEOUS","SDS580-359","TREATMENT","2013-01-16","2013-01-16",12,12],
["CDISCPILOT01","EX","CDISC007","DEV0007",13,"ZANOMALINE",54,"mg","INJECTION","QD","SUBCUTANEOUS","SDS580-359","TREATMENT","2013-01-17","2013-01-17",13,13],
["CDISCPILOT01","EX","CDISC007","DEV0007",14,"ZANOMALINE",54,"mg","INJECTION","QD","SUBCUTANEOUS","SDS580-359","TREATMENT","2013-01-18","2013-01-18",14,14],
["CDISCPILOT01","EX","CDISC007","DEV0007",15,"ZANOMALINE",81,"mg","INJECTION","QD","SUBCUTANEOUS","SDS580-359","TREATMENT","2013-01-19","2013-01-19",15,15],
["CDISCPILOT01","EX","CDISC007","DEV0007",16,"ZANOMALINE",81,"mg","INJECTION","QD","SUBCUTANEOUS","SDS580-359","TREATMENT","2013-01-20","2013-01-20",16,16],
["CDISCPILOT01","EX","CDISC007","DEV0007",17,"ZANOMALINE",81,"mg","INJECTION","QD","SUBCUTANEOUS","SDS580-359","TREATMENT","2013-01-21","2013-01-21",17,17],
["CDISCPILOT01","EX","CDISC007","DEV0007",18,"ZANOMALINE",81,"mg","INJECTION","QD","SUBCUTANEOUS","SDS580-359","TREATMENT","2013-01-22","2013-01-22",18,18],
["CDISCPILOT01","EX","CDISC007","DEV0007",19,"ZANOMALINE",81,"mg","INJECTION","QD","SUBCUTANEOUS","SDS580-359","TREATMENT","2013-01-23","2013-01-23",19,19],
["CDISCPILOT01","EX","CDISC007","DEV0007",20,"ZANOMALINE",81,"mg","INJECTION","QD","SUBCUTANEOUS","SDS580-359","TREATMENT","2013-01-24","2013-01-24",20,20],
["CDISCPILOT01","EX","CDISC007","DEV0007",21,"ZANOMALINE",81,"mg","INJECTION","QD","SUBCUTANEOUS","SDS580-359","TREATMENT","2013-01-25","2013-01-25",21,21],
["CDISCPILOT01","EX","CDISC007","DEV0007",22,"ZANOMALINE",81,"mg","INJECTION","QD","SUBCUTANEOUS","SDS580-359","TREATMENT","2013-01-26","2013-01-26",22,22],
["CDISCPILOT01","EX","CDISC007","DEV0007",23,"ZANOMALINE",81,"mg","INJECTION","QD","SUBCUTANEOUS","SDS580-359","TREATMENT","2013-01-27","2013-01-27",23,23],
["CDISCPILOT01","EX","CDISC007","DEV0007",24,"ZANOMALINE",81,"mg","INJECTION","QD","SUBCUTANEOUS","SDS580-359","TREATMENT","2013-01-28","2013-01-28",24,24],
["CDISCPILOT01","EX","CDISC007","DEV0007",25,"ZANOMALINE",81,"mg","INJECTION","QD","SUBCUTANEOUS","SDS580-359","TREATMENT","2013-01-29","2013-01-29",25,25],
["CDISCPILOT01","EX","CDISC007","DEV0007",26,"ZANOMALINE",81,"mg","INJECTION","QD","SUBCUTANEOUS","SDS580-359","TREATMENT","2013-01-30","2013-01-30",26,26],
["CDISCPILOT01","EX","CDISC007","DEV0007",27,"ZANOMALINE",81,"mg","INJECTION","QD","SUBCUTANEOUS","SDS580-359","TREATMENT","2013-01-31","2013-01-31",27,27],
["CDISCPILOT01","EX","CDISC007","DEV0007",28,"ZANOMALINE",81,"mg","INJECTION","QD","SUBCUTANEOUS","SDS580-359","TREATMENT","2013-02-01","2013-02-01",28,28],
["CDISCPILOT01","EX","CDISC007","DEV0007",29,"ZANOMALINE",81,"mg","INJECTION","QD","SUBCUTANEOUS","SDS580-359","TREATMENT","2013-02-02","2013-02-02",29,29],
["CDISCPILOT01","EX","CDISC007","DEV0007",30,"ZANOMALINE",81,"mg","INJECTION","QD","SUBCUTANEOUS","SDS580-359","TREATMENT","2013-02-03","2013-02-03",30,30],
["CDISCPILOT01","EX","CDISC007","DEV0007",31,"ZANOMALINE",81,"mg","INJECTION","QD","SUBCUTANEOUS","SDS580-359","TREATMENT","2013-02-04","2013-02-04",31,31],
["CDISCPILOT01","EX","CDISC007","DEV0007",32,"ZANOMALINE",81,"mg","INJECTION","QD","SUBCUTANEOUS","SDS580-359","TREATMENT","2013-02-05","2013-02-05",32,32],
["CDISCPILOT01","EX","CDISC007","DEV0007",33,"ZANOMALINE",81,"mg","INJECTION","QD","SUBCUTANEOUS","SDS580-359","TREATMENT","2013-02-06","2013-02-06",33,33],
["CDISCPILOT01","EX","CDISC007","DEV0007",34,"ZANOMALINE",81,"mg","INJECTION","QD","SUBCUTANEOUS","SDS580-359","TREATMENT","2013-02-07","2013-02-07",34,34],
["CDISCPILOT01","EX","CDISC007","DEV0007",35,"ZANOMALINE",81,"mg","INJECTION","QD","SUBCUTANEOUS","SDS580-359","TREATMENT","2013-02-08","2013-02-08",35,35],
["CDISCPILOT01","EX","CDISC007","DEV0007",36,"ZANOMALINE",81,"mg","INJECTION","QD","SUBCUTANEOUS","SDS580-359","TREATMENT","2013-02-09","2013-02-09",36,36],
["CDISCPILOT01","EX","CDISC007","DEV0007",37,"ZANOMALINE",81,"mg","INJECTION","QD","SUBCUTANEOUS","SDS580-359","TREATMENT","2013-02-10","2013-02-10",37,37],
["CDISCPILOT01","EX","CDISC007","DEV0007",38,"ZANOMALINE",81,"mg","INJECTION","QD","SUBCUTANEOUS","SDS580-359","TREATMENT","2013-02-11","2013-02-11",38,38],
["CDISCPILOT01","EX","CDISC007","DEV0007",39,"ZANOMALINE",81,"mg","INJECTION","QD","SUBCUTANEOUS","SDS580-359","TREATMENT","2013-02-12","2013-02-12",39,39],
["CDISCPILOT01","EX","CDISC008","DEV0008",1,"PLACEBO",0,"mg","INJECTION","QD","SUBCUTANEOUS","SDS580-926","TREATMENT","2014-05-11","2014-05-11",1,1],
["CDISCPILOT01","EX","CDISC008","DEV0008",2,"PLACEBO",0,"mg","INJECTION","QD","SUBCUTANEOUS","SDS580-926","TREATMENT","2014-05-12","2014-05-12",2,2],
["CDISCPILOT01","EX","CDISC008","DEV0008",3,"PLACEBO",0,"mg","INJECTION","QD","SUBCUTANEOUS","SDS580-926","TREATMENT","2014-05-13","2014-05-13",3,3],
["CDISCPILOT01","EX","CDISC008","DEV0008",4,"PLACEBO",0,"mg","INJECTION","QD","SUBCUTANEOUS","SDS580-926","TREATMENT","2014-05-14","2014-05-14",4,4],
["CDISCPILOT01","EX","CDISC008","DEV0008",5,"PLACEBO",0,"mg","INJECTION","QD","SUBCUTANEOUS","SDS580-926","TREATMENT","2014-05-15","2014-05-15",5,5],
["CDISCPILOT01","EX","CDISC008","DEV0008",6,"PLACEBO",0,"mg","INJECTION","QD","SUBCUTANEOUS","SDS580-926","TREATMENT","2014-05-16","2014-05-16",6,6],
["CDISCPILOT01","EX","CDISC008","DEV0008",7,"PLACEBO",0,"mg","INJECTION","QD","SUBCUTANEOUS","SDS580-926","TREATMENT","2014-05-17","2014-05-17",7,7],
["CDISCPILOT01","EX","CDISC008","DEV0008",8,"PLACEBO",0,"mg","INJECTION","QD","SUBCUTANEOUS","SDS580-926","TREATMENT","2014-05-18","2014-05-18",8,8],
["CDISCPILOT01","EX","CDISC008","DEV0008",9,"PLACEBO",0,"mg","INJECTION","QD","SUBCUTANEOUS","SDS580-926","TREATMENT","2014-05-19","2014-05-19",9,9],
["CDISCPILOT01","EX","CDISC008","DEV0008",10,"PLACEBO",0,"mg","INJECTION","QD","SUBCUTANEOUS","SDS580-926","TREATMENT","2014-05-20","2014-05-20",10,10],
["CDISCPILOT01","EX","CDISC008","DEV0008",11,"PLACEBO",0,"mg","INJECTION","QD","SUBCUTANEOUS","SDS580-926","TREATMENT","2014-05-21","2014-05-21",11,11],
["CDISCPILOT01","EX","CDISC008","DEV0008",12,"PLACEBO",0,"mg","INJECTION","QD","SUBCUTANEOUS","SDS580-926","TREATMENT","2014-05-22","2014-05-22",12,12],
["CDISCPILOT01","EX","CDISC008","DEV0008",13,"PLACEBO",0,"mg","INJECTION","QD","SUBCUTANEOUS","SDS580-926","TREATMENT","2014-05-23","2014-05-23",13,13],
["CDISCPILOT01","EX","CDISC008","DEV0008",14,"PLACEBO",0,"mg","INJECTION","QD","SUBCUTANEOUS","SDS580-926","TREATMENT","2014-05-24","2014-05-24",14,14],
["CDISCPILOT01","EX","CDISC008","DEV0008",15,"PLACEBO",0,"mg","INJECTION","QD","SUBCUTANEOUS","SDS580-926","TREATMENT","2014-05-25","2014-05-25",15,15],
["CDISCPILOT01","EX","CDISC008","DEV0008",16,"PLACEBO",0,"mg","INJECTION","QD","SUBCUTANEOUS","SDS580-926","TREATMENT","2014-05-26","2014-05-26",16,16],
["CDISCPILOT01","EX","CDISC008","DEV0008",17,"PLACEBO",0,"mg","INJECTION","QD","SUBCUTANEOUS","SDS580-926","TREATMENT","2014-05-27","2014-05-27",17,17],
["CDISCPILOT01","EX","CDISC008","DEV0008",18,"PLACEBO",0,"mg","INJECTION","QD","SUBCUTANEOUS","SDS580-926","TREATMENT","2014-05-28","2014-05-28",18,18],
["CDISCPILOT01","EX","CDISC008","DEV0008",19,"PLACEBO",0,"mg","INJECTION","QD","SUBCUTANEOUS","SDS580-926","TREATMENT","2014-05-29","2014-05-29",19,19],
["CDISCPILOT01","EX","CDISC008","DEV0008",20,"PLACEBO",0,"mg","INJECTION","QD","SUBCUTANEOUS","SDS580-926","TREATMENT","2014-05-30","2014-05-30",20,20],
["CDISCPILOT01","EX","CDISC008","DEV0008",21,"PLACEBO",0,"mg","INJECTION","QD","SUBCUTANEOUS","SDS580-926","TREATMENT","2014-05-31","2014-05-31",21,21],
["CDISCPILOT01","EX","CDISC008","DEV0008",22,"PLACEBO",0,"mg","INJECTION","QD","SUBCUTANEOUS","SDS580-926","TREATMENT","2014-06-01","2014-06-01",22,22],
["CDISCPILOT01","EX","CDISC008","DEV0008",23,"PLACEBO",0,"mg","INJECTION","QD","SUBCUTANEOUS","SDS580-926","TREATMENT","2014-06-02","2014-06-02",23,23],
["CDISCPILOT01","EX","CDISC008","DEV0008",24,"PLACEBO",0,"mg","INJECTION","QD","SUBCUTANEOUS","SDS580-926","TREATMENT","2014-06-03","2014-06-03",24,24],
["CDISCPILOT01","EX","CDISC008","DEV0008",25,"PLACEBO",0,"mg","INJECTION","QD","SUBCUTANEOUS","SDS580-926","TREATMENT","2014-06-04","2014-06-04",25,25],
["CDISCPILOT01","EX","CDISC008","DEV0008",26,"PLACEBO",0,"mg","INJECTION","QD","SUBCUTANEOUS","SDS580-926","TREATMENT","2014-06-05","2014-06-05",26,26],
["CDISCPILOT01","EX","CDISC008","DEV0008",27,"PLACEBO",0,"mg","INJECTION","QD","SUBCUTANEOUS","SDS580-926","TREATMENT","2014-06-06","2014-06-06",27,27],
["CDISCPILOT01","EX","CDISC008","DEV0008",28,"PLACEBO",0,"mg","INJECTION","QD","SUBCUTANEOUS","SDS580-926","TREATMENT","2014-06-07","2014-06-07",28,28],
["CDISCPILOT01","EX","CDISC008","DEV0008",29,"PLACEBO",0,"mg","INJECTION","QD","SUBCUTANEOUS","SDS580-926","TREATMENT","2014-06-08","2014-06-08",29,29],
["CDISCPILOT01","EX","CDISC008","DEV0008",30,"PLACEBO",0,"mg","INJECTION","QD","SUBCUTANEOUS","SDS580-926","TREATMENT","2014-06-09","2014-06-09",30,30],
["CDISCPILOT01","EX","CDISC008","DEV0008",31,"PLACEBO",0,"mg","INJECTION","QD","SUBCUTANEOUS","SDS580-926","TREATMENT","2014-06-10","2014-06-10",31,31],
["CDISCPILOT01","EX","CDISC008","DEV0008",32,"PLACEBO",0,"mg","INJECTION","QD","SUBCUTANEOUS","SDS580-926","TREATMENT","2014-06-11","2014-06-11",32,32],
["CDISCPILOT01","EX","CDISC008","DEV0008",33,"PLACEBO",0,"mg","INJECTION","QD","SUBCUTANEOUS","SDS580-926","TREATMENT","2014-06-12","2014-06-12",33,33],
["CDISCPILOT01","EX","CDISC008","DEV0008",34,"PLACEBO",0,"mg","INJECTION","QD","SUBCUTANEOUS","SDS580-926","TREATMENT","2014-06-13","2014-06-13",34,34],
["CDISCPILOT01","EX","CDISC008","DEV0008",35,"PLACEBO",0,"mg","INJECTION","QD","SUBCUTANEOUS","SDS580-926","TREATMENT","2014-06-14","2014-06-14",35,35],
["CDISCPILOT01","EX","CDISC008","DEV0008",36,"PLACEBO",0,"mg","INJECTION","QD","SUBCUTANEOUS","SDS580-926","TREATMENT","2014-06-15","2014-06-15",36,36],
["CDISCPILOT01","EX","CDISC008","DEV0008",37,"PLACEBO",0,"mg","INJECTION","QD","SUBCUTANEOUS","SDS580-926","TREATMENT","2014-06-16","2014-06-16",37,37],
["CDISCPILOT01","EX","CDISC008","DEV0008",38,"PLACEBO",0,"mg","INJECTION","QD","SUBCUTANEOUS","SDS580-926","TREATMENT","2014-06-17","2014-06-17",38,38],
["CDISCPILOT01","EX","CDISC008","DEV0008",39,"PLACEBO",0,"mg","INJECTION","QD","SUBCUTANEOUS","SDS580-926","TREATMENT","2014-06-18","2014-06-18",39,39],
["CDISCPILOT01","EX","CDISC008","DEV0008",40,"PLACEBO",0,"mg","INJECTION","QD","SUBCUTANEOUS","SDS580-926","TREATMENT","2014-06-19","2014-06-19",40,40],
["CDISCPILOT01","EX","CDISC008","DEV0008",41,"PLACEBO",0,"mg","INJECTION","QD","SUBCUTANEOUS","SDS580-926","TREATMENT","2014-06-20","2014-06-20",41,41],
["CDISCPILOT01","EX","CDISC008","DEV0008",42,"PLACEBO",0,"mg","INJECTION","QD","SUBCUTANEOUS","SDS580-926","TREATMENT","2014-06-21","2014-06-21",42,42],
["CDISCPILOT01","EX","CDISC008","DEV0008",43,"PLACEBO",0,"mg","INJECTION","QD","SUBCUTANEOUS","SDS580-926","TREATMENT","2014-06-22","2014-06-22",43,43],
["CDISCPILOT01","EX","CDISC008","DEV0008",44,"PLACEBO",0,"mg","INJECTION","QD","SUBCUTANEOUS","SDS580-926","TREATMENT","2014-06-23","2014-06-23",44,44],
["CDISCPILOT01","EX","CDISC008","DEV0008",45,"PLACEBO",0,"mg","INJECTION","QD","SUBCUTANEOUS","SDS580-926","TREATMENT","2014-06-24","2014-06-24",45,45],
["CDISCPILOT01","EX","CDISC008","DEV0008",46,"PLACEBO",0,"mg","INJECTION","QD","SUBCUTANEOUS","SDS580-926","TREATMENT","2014-06-25","2014-06-25",46,46],
["CDISCPILOT01","EX","CDISC008","DEV0008",47,"PLACEBO",0,"mg","INJECTION","QD","SUBCUTANEOUS","SDS580-926","TREATMENT","2014-06-26","2014-06-26",47,47],
["CDISCPILOT01","EX","CDISC008","DEV0008",48,"PLACEBO",0,"mg","INJECTION","QD","SUBCUTANEOUS","SDS580-926","TREATMENT","2014-06-27","2014-06-27",48,48],
["CDISCPILOT01","EX","CDISC008","DEV0008",49,"PLACEBO",0,"mg","INJECTION","QD","SUBCUTANEOUS","SDS580-926","TREATMENT","2014-06-28","2014-06-28",49,49],
["CDISCPILOT01","EX","CDISC008","DEV0008",50,"PLACEBO",0,"mg","INJECTION","QD","SUBCUTANEOUS","SDS580-926","TREATMENT","2014-06-29","2014-06-29",50,50],
["CDISCPILOT01","EX","CDISC008","DEV0008",51,"PLACEBO",0,"mg","INJECTION","QD","SUBCUTANEOUS","SDS580-926","TREATMENT","2014-06-30","2014-06-30",51,51],
["CDISCPILOT01","EX","CDISC008","DEV0008",52,"PLACEBO",0,"mg","INJECTION","QD","SUBCUTANEOUS","SDS580-926","TREATMENT","2014-07-01","2014-07-01",52,52],
["CDISCPILOT01","EX","CDISC008","DEV0008",53,"PLACEBO",0,"mg","INJECTION","QD","SUBCUTANEOUS","SDS580-926","TREATMENT","2014-07-02","2014-07-02",53,53],
["CDISCPILOT01","EX","CDISC008","DEV0008",54,"PLACEBO",0,"mg","INJECTION","QD","SUBCUTANEOUS","SDS580-926","TREATMENT","2014-07-03","2014-07-03",54,54],
["CDISCPILOT01","EX","CDISC008","DEV0008",55,"PLACEBO",0,"mg","INJECTION","QD","SUBCUTANEOUS","SDS580-926","TREATMENT","2014-07-04","2014-07-04",55,55],
["CDISCPILOT01","EX","CDISC008","DEV0008",56,"PLACEBO",0,"mg","INJECTION","QD","SUBCUTANEOUS","SDS580-926","TREATMENT","2014-07-05","2014-07-05",56,56],
["CDISCPILOT01","EX","CDISC008","DEV0008",57,"PLACEBO",0,"mg","INJECTION","QD","SUBCUTANEOUS","SDS580-926","TREATMENT","2014-07-06","2014-07-06",57,57],
["CDISCPILOT01","EX","CDISC008","DEV0008",58,"PLACEBO",0,"mg","INJECTION","QD","SUBCUTANEOUS","SDS580-926","TREATMENT","2014-07-07","2014-07-07",58,58],
["CDISCPILOT01","EX","CDISC008","DEV0008",59,"PLACEBO",0,"mg","INJECTION","QD","SUBCUTANEOUS","SDS580-926","TREATMENT","2014-07-08","2014-07-08",59,59],
["CDISCPILOT01","EX","CDISC008","DEV0008",60,"PLACEBO",0,"mg","INJECTION","QD","SUBCUTANEOUS","SDS580-926","TREATMENT","2014-07-09","2014-07-09",60,60],
["CDISCPILOT01","EX","CDISC008","DEV0008",61,"PLACEBO",0,"mg","INJECTION","QD","SUBCUTANEOUS","SDS580-926","TREATMENT","2014-07-10","2014-07-10",61,61],
["CDISCPILOT01","EX","CDISC008","DEV0008",62,"PLACEBO",0,"mg","INJECTION","QD","SUBCUTANEOUS","SDS580-926","TREATMENT","2014-07-11","2014-07-11",62,62],
["CDISCPILOT01","EX","CDISC008","DEV0008",63,"PLACEBO",0,"mg","INJECTION","QD","SUBCUTANEOUS","SDS580-926","TREATMENT","2014-07-12","2014-07-12",63,63],
["CDISCPILOT01","EX","CDISC008","DEV0008",64,"PLACEBO",0,"mg","INJECTION","QD","SUBCUTANEOUS","SDS580-926","TREATMENT","2014-07-13","2014-07-13",64,64],
["CDISCPILOT01","EX","CDISC008","DEV0008",65,"PLACEBO",0,"mg","INJECTION","QD","SUBCUTANEOUS","SDS580-926","TREATMENT","2014-07-14","2014-07-14",65,65],
["CDISCPILOT01","EX","CDISC008","DEV0008",66,"PLACEBO",0,"mg","INJECTION","QD","SUBCUTANEOUS","SDS580-926","TREATMENT","2014-07-15","2014-07-15",66,66],
["CDISCPILOT01","EX","CDISC008","DEV0008",67,"PLACEBO",0,"mg","INJECTION","QD","SUBCUTANEOUS","SDS580-926","TREATMENT","2014-07-16","2014-07-16",67,67],
["CDISCPILOT01","EX","CDISC008","DEV0008",68,"PLACEBO",0,"mg","INJECTION","QD","SUBCUTANEOUS","SDS580-926","TREATMENT","2014-07-17","2014-07-17",68,68],
["CDISCPILOT01","EX","CDISC008","DEV0008",69,"PLACEBO",0,"mg","INJECTION","QD","SUBCUTANEOUS","SDS580-926","TREATMENT","2014-07-18","2014-07-18",69,69],
["CDISCPILOT01","EX","CDISC008","DEV0008",70,"PLACEBO",0,"mg","INJECTION","QD","SUBCUTANEOUS","SDS580-926","TREATMENT","2014-07-19","2014-07-19",70,70],
["CDISCPILOT01","EX","CDISC008","DEV0008",71,"PLACEBO",0,"mg","INJECTION","QD","SUBCUTANEOUS","SDS580-926","TREATMENT","2014-07-20","2014-07-20",71,71],
["CDISCPILOT01","EX","CDISC008","DEV0008",72,"PLACEBO",0,"mg","INJECTION","QD","SUBCUTANEOUS","SDS580-926","TREATMENT","2014-07-21","2014-07-21",72,72],
["CDISCPILOT01","EX","CDISC008","DEV0008",73,"PLACEBO",0,"mg","INJECTION","QD","SUBCUTANEOUS","SDS580-926","TREATMENT","2014-07-22","2014-07-22",73,73],
["CDISCPILOT01","EX","CDISC008","DEV0008",74,"PLACEBO",0,"mg","INJECTION","QD","SUBCUTANEOUS","SDS580-926","TREATMENT","2014-07-23","2014-07-23",74,74],
["CDISCPILOT01","EX","CDISC008","DEV0008",75,"PLACEBO",0,"mg","INJECTION","QD","SUBCUTANEOUS","SDS580-926","TREATMENT","2014-07-24","2014-07-24",75,75],
["CDISCPILOT01","EX","CDISC008","DEV0008",76,"PLACEBO",0,"mg","INJECTION","QD","SUBCUTANEOUS","SDS580-926","TREATMENT","2014-07-25","2014-07-25",76,76],
["CDISCPILOT01","EX","CDISC008","DEV0008",77,"PLACEBO",0,"mg","INJECTION","QD","SUBCUTANEOUS","SDS580-926","TREATMENT","2014-07-26","2014-07-26",77,77],
["CDISCPILOT01","EX","CDISC008","DEV0008",78,"PLACEBO",0,"mg","INJECTION","QD","SUBCUTANEOUS","SDS580-926","TREATMENT","2014-07-27","2014-07-27",78,78],
["CDISCPILOT01","EX","CDISC008","DEV0008",79,"PLACEBO",0,"mg","INJECTION","QD","SUBCUTANEOUS","SDS580-926","TREATMENT","2014-07-28","2014-07-28",79,79],
["CDISCPILOT01","EX","CDISC008","DEV0008",80,"PLACEBO",0,"mg","INJECTION","QD","SUBCUTANEOUS","SDS580-926","TREATMENT","2014-07-29","2014-07-29",80,80],
["CDISCPILOT01","EX","CDISC008","DEV0008",81,"PLACEBO",0,"mg","INJECTION","QD","SUBCUTANEOUS","SDS580-926","TREATMENT","2014-07-30","2014-07-30",81,81],
["CDISCPILOT01","EX","CDISC008","DEV0008",82,"PLACEBO",0,"mg","INJECTION","QD","SUBCUTANEOUS","SDS580-926","TREATMENT","2014-07-31","2014-07-31",82,82],
["CDISCPILOT01","EX","CDISC008","DEV0008",83,"PLACEBO",0,"mg","INJECTION","QD","SUBCUTANEOUS","SDS580-926","TREATMENT","2014-08-01","2014-08-01",83,83],
["CDISCPILOT01","EX","CDISC008","DEV0008",84,"PLACEBO",0,"mg","INJECTION","QD","SUBCUTANEOUS","SDS580-926","TREATMENT","2014-08-02","2014-08-02",84,84],
["CDISCPILOT01","EX","CDISC008","DEV0008",85,"PLACEBO",0,"mg","INJECTION","QD","SUBCUTANEOUS","SDS580-926","TREATMENT","2014-08-03","2014-08-03",85,85],
["CDISCPILOT01","EX","CDISC008","DEV0008",86,"PLACEBO",0,"mg","INJECTION","QD","SUBCUTANEOUS","SDS580-926","TREATMENT","2014-08-04","2014-08-04",86,86],
["CDISCPILOT01","EX","CDISC008","DEV0008",87,"PLACEBO",0,"mg","INJECTION","QD","SUBCUTANEOUS","SDS580-926","TREATMENT","2014-08-05","2014-08-05",87,87],
["CDISCPILOT01","EX","CDISC008","DEV0008",88,"PLACEBO",0,"mg","INJECTION","QD","SUBCUTANEOUS","SDS580-926","TREATMENT","2014-08-06","2014-08-06",88,88],
["CDISCPILOT01","EX","CDISC008","DEV0008",89,"PLACEBO",0,"mg","INJECTION","QD","SUBCUTANEOUS","SDS580-926","TREATMENT","2014-08-07","2014-08-07",89,89],
["CDISCPILOT01","EX","CDISC008","DEV0008",90,"PLACEBO",0,"mg","INJECTION","QD","SUBCUTANEOUS","SDS580-926","TREATMENT","2014-08-08","2014-08-08",90,90],
["CDISCPILOT01","EX","CDISC008","DEV0008",91,"PLACEBO",0,"mg","INJECTION","QD","SUBCUTANEOUS","SDS580-926","TREATMENT","2014-08-09","2014-08-09",91,91],
["CDISCPILOT01","EX","CDISC008","DEV0008",92,"PLACEBO",0,"mg","INJECTION","QD","SUBCUTANEOUS","SDS580-926","TREATMENT","2014-08-10","2014-08-10",92,92],
["CDISCPILOT01","EX","CDISC008","DEV0008",93,"PLACEBO",0,"mg","INJECTION","QD","SUBCUTANEOUS","SDS580-926","TREATMENT","2014-08-11","2014-08-11",93,93],
["CDISCPILOT01","EX","CDISC008","DEV0008",94,"PLACEBO",0,"mg","INJECTION","QD","SUBCUTANEOUS","SDS580-926","TREATMENT","2014-08-12","2014-08-12",94,94],
["CDISCPILOT01","EX","CDISC008","DEV0008",95,"PLACEBO",0,"mg","INJECTION","QD","SUBCUTANEOUS","SDS580-926","TREATMENT","2014-08-13","2014-08-13",95,95],
["CDISCPILOT01","EX","CDISC008","DEV0008",96,"PLACEBO",0,"mg","INJECTION","QD","SUBCUTANEOUS","SDS580-926","TREATMENT","2014-08-14","2014-08-14",96,96],
["CDISCPILOT01","EX","CDISC008","DEV0008",97,"PLACEBO",0,"mg","INJECTION","QD","SUBCUTANEOUS","SDS580-926","TREATMENT","2014-08-15","2014-08-15",97,97],
["CDISCPILOT01","EX","CDISC008","DEV0008",98,"PLACEBO",0,"mg","INJECTION","QD","SUBCUTANEOUS","SDS580-926","TREATMENT","2014-08-16","2014-08-16",98,98],
["CDISCPILOT01","EX","CDISC008","DEV0008",99,"PLACEBO",0,"mg","INJECTION","QD","SUBCUTANEOUS","SDS580-926","TREATMENT","2014-08-17","2014-08-17",99,99],
["CDISCPILOT01","EX","CDISC008","DEV0008",100,"PLACEBO",0,"mg","INJECTION","QD","SUBCUTANEOUS","SDS580-926","TREATMENT","2014-08-18","2014-08-18",100,100],
["CDISCPILOT01","EX","CDISC008","DEV0008",101,"PLACEBO",0,"mg","INJECTION","QD","SUBCUTANEOUS","SDS580-926","TREATMENT","2014-08-19","2014-08-19",101,101],
["CDISCPILOT01","EX","CDISC008","DEV0008",102,"PLACEBO",0,"mg","INJECTION","QD","SUBCUTANEOUS","SDS580-926","TREATMENT","2014-08-20","2014-08-20",102,102],
["CDISCPILOT01","EX","CDISC008","DEV0008",103,"PLACEBO",0,"mg","INJECTION","QD","SUBCUTANEOUS","SDS580-926","TREATMENT","2014-08-21","2014-08-21",103,103],
["CDISCPILOT01","EX","CDISC008","DEV0008",104,"PLACEBO",0,"mg","INJECTION","QD","SUBCUTANEOUS","SDS580-926","TREATMENT","2014-08-22","2014-08-22",104,104],
["CDISCPILOT01","EX","CDISC008","DEV0008",105,"PLACEBO",0,"mg","INJECTION","QD","SUBCUTANEOUS","SDS580-926","TREATMENT","2014-08-23","2014-08-23",105,105],
["CDISCPILOT01","EX","CDISC008","DEV0008",106,"PLACEBO",0,"mg","INJECTION","QD","SUBCUTANEOUS","SDS580-926","TREATMENT","2014-08-24","2014-08-24",106,106],
["CDISCPILOT01","EX","CDISC008","DEV0008",107,"PLACEBO",0,"mg","INJECTION","QD","SUBCUTANEOUS","SDS580-926","TREATMENT","2014-08-25","2014-08-25",107,107],
["CDISCPILOT01","EX","CDISC008","DEV0008",108,"PLACEBO",0,"mg","INJECTION","QD","SUBCUTANEOUS","SDS580-926","TREATMENT","2014-08-26","2014-08-26",108,108],
["CDISCPILOT01","EX","CDISC008","DEV0008",109,"PLACEBO",0,"mg","INJECTION","QD","SUBCUTANEOUS","SDS580-926","TREATMENT","2014-08-27","2014-08-27",109,109],
["CDISCPILOT01","EX","CDISC008","DEV0008",110,"PLACEBO",0,"mg","INJECTION","QD","SUBCUTANEOUS","SDS580-926","TREATMENT","2014-08-28","2014-08-28",110,110],
["CDISCPILOT01","EX","CDISC008","DEV0008",111,"PLACEBO",0,"mg","INJECTION","QD","SUBCUTANEOUS","SDS580-926","TREATMENT","2014-08-29","2014-08-29",111,111],
["CDISCPILOT01","EX","CDISC008","DEV0008",112,"PLACEBO",0,"mg","INJECTION","QD","SUBCUTANEOUS","SDS580-926","TREATMENT","2014-08-30","2014-08-30",112,112],
["CDISCPILOT01","EX","CDISC008","DEV0008",113,"PLACEBO",0,"mg","INJECTION","QD","SUBCUTANEOUS","SDS580-926","TREATMENT","2014-08-31","2014-08-31",113,113],
["CDISCPILOT01","EX","CDISC008","DEV0008",114,"PLACEBO",0,"mg","INJECTION","QD","SUBCUTANEOUS","SDS580-926","TREATMENT","2014-09-01","2014-09-01",114,114],
["CDISCPILOT01","EX","CDISC008","DEV0008",115,"PLACEBO",0,"mg","INJECTION","QD","SUBCUTANEOUS","SDS580-926","TREATMENT","2014-09-02","2014-09-02",115,115],
["CDISCPILOT01","EX","CDISC008","DEV0008",116,"PLACEBO",0,"mg","INJECTION","QD","SUBCUTANEOUS","SDS580-926","TREATMENT","2014-09-03","2014-09-03",116,116],
["CDISCPILOT01","EX","CDISC008","DEV0008",117,"PLACEBO",0,"mg","INJECTION","QD","SUBCUTANEOUS","SDS580-926","TREATMENT","2014-09-04","2014-09-04",117,117],
["CDISCPILOT01","EX","CDISC008","DEV0008",118,"PLACEBO",0,"mg","INJECTION","QD","SUBCUTANEOUS","SDS580-926","TREATMENT","2014-09-05","2014-09-05",118,118],
["CDISCPILOT01","EX","CDISC008","DEV0008",119,"PLACEBO",0,"mg","INJECTION","QD","SUBCUTANEOUS","SDS580-926","TREATMENT","2014-09-06","2014-09-06",119,119],
["CDISCPILOT01","EX","CDISC008","DEV0008",120,"PLACEBO",0,"mg","INJECTION","QD","SUBCUTANEOUS","SDS580-926","TREATMENT","2014-09-07","2014-09-07",120,120],
["CDISCPILOT01","EX","CDISC008","DEV0008",121,"PLACEBO",0,"mg","INJECTION","QD","SUBCUTANEOUS","SDS580-926","TREATMENT","2014-09-08","2014-09-08",121,121],
["CDISCPILOT01","EX","CDISC008","DEV0008",122,"PLACEBO",0,"mg","INJECTION","QD","SUBCUTANEOUS","SDS580-926","TREATMENT","2014-09-09","2014-09-09",122,122],
["CDISCPILOT01","EX","CDISC008","DEV0008",123,"PLACEBO",0,"mg","INJECTION","QD","SUBCUTANEOUS","SDS580-926","TREATMENT","2014-09-10","2014-09-10",123,123],
["CDISCPILOT01","EX","CDISC008","DEV0008",124,"PLACEBO",0,"mg","INJECTION","QD","SUBCUTANEOUS","SDS580-926","TREATMENT","2014-09-11","2014-09-11",124,124],
["CDISCPILOT01","EX","CDISC008","DEV0008",125,"PLACEBO",0,"mg","INJECTION","QD","SUBCUTANEOUS","SDS580-926","TREATMENT","2014-09-12","2014-09-12",125,125],
["CDISCPILOT01","EX","CDISC008","DEV0008",126,"PLACEBO",0,"mg","INJECTION","QD","SUBCUTANEOUS","SDS580-926","TREATMENT","2014-09-13","2014-09-13",126,126],
["CDISCPILOT01","EX","CDISC008","DEV0008",127,"PLACEBO",0,"mg","INJECTION","QD","SUBCUTANEOUS","SDS580-926","TREATMENT","2014-09-14","2014-09-14",127,127],
["CDISCPILOT01","EX","CDISC008","DEV0008",128,"PLACEBO",0,"mg","INJECTION","QD","SUBCUTANEOUS","SDS580-926","TREATMENT","2014-09-15","2014-09-15",128,128],
["CDISCPILOT01","EX","CDISC008","DEV0008",129,"PLACEBO",0,"mg","INJECTION","QD","SUBCUTANEOUS","SDS580-926","TREATMENT","2014-09-16","2014-09-16",129,129],
["CDISCPILOT01","EX","CDISC008","DEV0008",130,"PLACEBO",0,"mg","INJECTION","QD","SUBCUTANEOUS","SDS580-926","TREATMENT","2014-09-17","2014-09-17",130,130],
["CDISCPILOT01","EX","CDISC008","DEV0008",131,"PLACEBO",0,"mg","INJECTION","QD","SUBCUTANEOUS","SDS580-926","TREATMENT","2014-09-18","2014-09-18",131,131],
["CDISCPILOT01","EX","CDISC008","DEV0008",132,"PLACEBO",0,"mg","INJECTION","QD","SUBCUTANEOUS","SDS580-926","TREATMENT","2014-09-19","2014-09-19",132,132],
["CDISCPILOT01","EX","CDISC008","DEV0008",133,"PLACEBO",0,"mg","INJECTION","QD","SUBCUTANEOUS","SDS580-926","TREATMENT","2014-09-20","2014-09-20",133,133],
["CDISCPILOT01","EX","CDISC008","DEV0008",134,"PLACEBO",0,"mg","INJECTION","QD","SUBCUTANEOUS","SDS580-926","TREATMENT","2014-09-21","2014-09-21",134,134],
["CDISCPILOT01","EX","CDISC008","DEV0008",135,"PLACEBO",0,"mg","INJECTION","QD","SUBCUTANEOUS","SDS580-926","TREATMENT","2014-09-22","2014-09-22",135,135],
["CDISCPILOT01","EX","CDISC008","DEV0008",136,"PLACEBO",0,"mg","INJECTION","QD","SUBCUTANEOUS","SDS580-926","TREATMENT","2014-09-23","2014-09-23",136,136],
["CDISCPILOT01","EX","CDISC008","DEV0008",137,"PLACEBO",0,"mg","INJECTION","QD","SUBCUTANEOUS","SDS580-926","TREATMENT","2014-09-24","2014-09-24",137,137],
["CDISCPILOT01","EX","CDISC008","DEV0008",138,"PLACEBO",0,"mg","INJECTION","QD","SUBCUTANEOUS","SDS580-926","TREATMENT","2014-09-25","2014-09-25",138,138],
["CDISCPILOT01","EX","CDISC008","DEV0008",139,"PLACEBO",0,"mg","INJECTION","QD","SUBCUTANEOUS","SDS580-926","TREATMENT","2014-09-26","2014-09-26",139,139],
["CDISCPILOT01","EX","CDISC008","DEV0008",140,"PLACEBO",0,"mg","INJECTION","QD","SUBCUTANEOUS","SDS580-926","TREATMENT","2014-09-27","2014-09-27",140,140],
["CDISCPILOT01","EX","CDISC008","DEV0008",141,"PLACEBO",0,"mg","INJECTION","QD","SUBCUTANEOUS","SDS580-926","TREATMENT","2014-09-28","2014-09-28",141,141],
["CDISCPILOT01","EX","CDISC008","DEV0008",142,"PLACEBO",0,"mg","INJECTION","QD","SUBCUTANEOUS","SDS580-926","TREATMENT","2014-09-29","2014-09-29",142,142],
["CDISCPILOT01","EX","CDISC008","DEV0008",143,"PLACEBO",0,"mg","INJECTION","QD","SUBCUTANEOUS","SDS580-926","TREATMENT","2014-09-30","2014-09-30",143,143],
["CDISCPILOT01","EX","CDISC008","DEV0008",144,"PLACEBO",0,"mg","INJECTION","QD","SUBCUTANEOUS","SDS580-926","TREATMENT","2014-10-01","2014-10-01",144,144],
["CDISCPILOT01","EX","CDISC008","DEV0008",145,"PLACEBO",0,"mg","INJECTION","QD","SUBCUTANEOUS","SDS580-926","TREATMENT","2014-10-02","2014-10-02",145,145],
["CDISCPILOT01","EX","CDISC008","DEV0008",146,"PLACEBO",0,"mg","INJECTION","QD","SUBCUTANEOUS","SDS580-926","TREATMENT","2014-10-03","2014-10-03",146,146],
["CDISCPILOT01","EX","CDISC008","DEV0008",147,"PLACEBO",0,"mg","INJECTION","QD","SUBCUTANEOUS","SDS580-926","TREATMENT","2014-10-04","2014-10-04",147,147],
["CDISCPILOT01","EX","CDISC008","DEV0008",148,"PLACEBO",0,"mg","INJECTION","QD","SUBCUTANEOUS","SDS580-926","TREATMENT","2014-10-05","2014-10-05",148,148],
["CDISCPILOT01","EX","CDISC008","DEV0008",149,"PLACEBO",0,"mg","INJECTION","QD","SUBCUTANEOUS","SDS580-926","TREATMENT","2014-10-06","2014-10-06",149,149],
["CDISCPILOT01","EX","CDISC008","DEV0008",150,"PLACEBO",0,"mg","INJECTION","QD","SUBCUTANEOUS","SDS580-926","TREATMENT","2014-10-07","2014-10-07",150,150],
["CDISCPILOT01","EX","CDISC008","DEV0008",151,"PLACEBO",0,"mg","INJECTION","QD","SUBCUTANEOUS","SDS580-926","TREATMENT","2014-10-08","2014-10-08",151,151],
["CDISCPILOT01","EX","CDISC008","DEV0008",152,"PLACEBO",0,"mg","INJECTION","QD","SUBCUTANEOUS","SDS580-926","TREATMENT","2014-10-09","2014-10-09",152,152],
["CDISCPILOT01","EX","CDISC008","DEV0008",153,"PLACEBO",0,"mg","INJECTION","QD","SUBCUTANEOUS","SDS580-926","TREATMENT","2014-10-10","2014-10-10",153,153],
["CDISCPILOT01","EX","CDISC008","DEV0008",154,"PLACEBO",0,"mg","INJECTION","QD","SUBCUTANEOUS","SDS580-926","TREATMENT","2014-10-11","2014-10-11",154,154],
["CDISCPILOT01","EX","CDISC008","DEV0008",155,"PLACEBO",0,"mg","INJECTION","QD","SUBCUTANEOUS","SDS580-926","TREATMENT","2014-10-12","2014-10-12",155,155],
["CDISCPILOT01","EX","CDISC008","DEV0008",156,"PLACEBO",0,"mg","INJECTION","QD","SUBCUTANEOUS","SDS580-926","TREATMENT","2014-10-13","2014-10-13",156,156],
["CDISCPILOT01","EX","CDISC008","DEV0008",157,"PLACEBO",0,"mg","INJECTION","QD","SUBCUTANEOUS","SDS580-926","TREATMENT","2014-10-14","2014-10-14",157,157],
["CDISCPILOT01","EX","CDISC008","DEV0008",158,"PLACEBO",0,"mg","INJECTION","QD","SUBCUTANEOUS","SDS580-926","TREATMENT","2014-10-15","2014-10-15",158,158],
["CDISCPILOT01","EX","CDISC008","DEV0008",159,"PLACEBO",0,"mg","INJECTION","QD","SUBCUTANEOUS","SDS580-926","TREATMENT","2014-10-16","2014-10-16",159,159],
["CDISCPILOT01","EX","CDISC008","DEV0008",160,"PLACEBO",0,"mg","INJECTION","QD","SUBCUTANEOUS","SDS580-926","TREATMENT","2014-10-17","2014-10-17",160,160],
["CDISCPILOT01","EX","CDISC008","DEV0008",161,"PLACEBO",0,"mg","INJECTION","QD","SUBCUTANEOUS","SDS580-926","TREATMENT","2014-10-18","2014-10-18",161,161],
["CDISCPILOT01","EX","CDISC008","DEV0008",162,"PLACEBO",0,"mg","INJECTION","QD","SUBCUTANEOUS","SDS580-926","TREATMENT","2014-10-19","2014-10-19",162,162],
["CDISCPILOT01","EX","CDISC008","DEV0008",163,"PLACEBO",0,"mg","INJECTION","QD","SUBCUTANEOUS","SDS580-926","TREATMENT","2014-10-20","2014-10-20",163,163],
["CDISCPILOT01","EX","CDISC008","DEV0008",164,"PLACEBO",0,"mg","INJECTION","QD","SUBCUTANEOUS","SDS580-926","TREATMENT","2014-10-21","2014-10-21",164,164],
["CDISCPILOT01","EX","CDISC008","DEV0008",165,"PLACEBO",0,"mg","INJECTION","QD","SUBCUTANEOUS","SDS580-926","TREATMENT","2014-10-22","2014-10-22",165,165],
["CDISCPILOT01","EX","CDISC008","DEV0008",166,"PLACEBO",0,"mg","INJECTION","QD","SUBCUTANEOUS","SDS580-926","TREATMENT","2014-10-23","2014-10-23",166,166],
["CDISCPILOT01","EX","CDISC008","DEV0008",167,"PLACEBO",0,"mg","INJECTION","QD","SUBCUTANEOUS","SDS580-926","TREATMENT","2014-10-24","2014-10-24",167,167],
["CDISCPILOT01","EX","CDISC008","DEV0008",168,"PLACEBO",0,"mg","INJECTION","QD","SUBCUTANEOUS","SDS580-926","TREATMENT","2014-10-25","2014-10-25",168,168],
["CDISCPILOT01","EX","CDISC008","DEV0008",169,"PLACEBO",0,"mg","INJECTION","QD","SUBCUTANEOUS","SDS580-926","TREATMENT","2014-10-26","2014-10-26",169,169],
["CDISCPILOT01","EX","CDISC008","DEV0008",170,"PLACEBO",0,"mg","INJECTION","QD","SUBCUTANEOUS","SDS580-926","TREATMENT","2014-10-27","2014-10-27",170,170],
["CDISCPILOT01","EX","CDISC008","DEV0008",171,"PLACEBO",0,"mg","INJECTION","QD","SUBCUTANEOUS","SDS580-926","TREATMENT","2014-10-28","2014-10-28",171,171],
["CDISCPILOT01","EX","CDISC008","DEV0008",172,"PLACEBO",0,"mg","INJECTION","QD","SUBCUTANEOUS","SDS580-926","TREATMENT","2014-10-29","2014-10-29",172,172],
["CDISCPILOT01","EX","CDISC008","DEV0008",173,"PLACEBO",0,"mg","INJECTION","QD","SUBCUTANEOUS","SDS580-926","TREATMENT","2014-10-30","2014-10-30",173,173],
["CDISCPILOT01","EX","CDISC008","DEV0008",174,"PLACEBO",0,"mg","INJECTION","QD","SUBCUTANEOUS","SDS580-926","TREATMENT","2014-10-31","2014-10-31",174,174],
["CDISCPILOT01","EX","CDISC009","DEV0009",1,"PLACEBO",0,"mg","INJECTION","QD","SUBCUTANEOUS","SDS580-485","TREATMENT","2012-10-22","2012-10-22",1,1],
["CDISCPILOT01","EX","CDISC009","DEV0009",2,"PLACEBO",0,"mg","INJECTION","QD","SUBCUTANEOUS","SDS580-485","TREATMENT","2012-10-23","2012-10-23",2,2],
["CDISCPILOT01","EX","CDISC009","DEV0009",3,"PLACEBO",0,"mg","INJECTION","QD","SUBCUTANEOUS","SDS580-485","TREATMENT","2012-10-24","2012-10-24",3,3],
["CDISCPILOT01","EX","CDISC009","DEV0009",4,"PLACEBO",0,"mg","INJECTION","QD","SUBCUTANEOUS","SDS580-485","TREATMENT","2012-10-25","2012-10-25",4,4],
["CDISCPILOT01","EX","CDISC009","DEV0009",5,"PLACEBO",0,"mg","INJECTION","QD","SUBCUTANEOUS","SDS580-485","TREATMENT","2012-10-26","2012-10-26",5,5],
["CDISCPILOT01","EX","CDISC009","DEV0009",6,"PLACEBO",0,"mg","INJECTION","QD","SUBCUTANEOUS","SDS580-485","TREATMENT","2012-10-27","2012-10-27",6,6],
["CDISCPILOT01","EX","CDISC009","DEV0009",7,"PLACEBO",0,"mg","INJECTION","QD","SUBCUTANEOUS","SDS580-485","TREATMENT","2012-10-28","2012-10-28",7,7],
["CDISCPILOT01","EX","CDISC009","DEV0009",8,"PLACEBO",0,"mg","INJECTION","QD","SUBCUTANEOUS","SDS580-485","TREATMENT","2012-10-29","2012-10-29",8,8],
["CDISCPILOT01","EX","CDISC009","DEV0009",9,"PLACEBO",0,"mg","INJECTION","QD","SUBCUTANEOUS","SDS580-485","TREATMENT","2012-10-30","2012-10-30",9,9],
["CDISCPILOT01","EX","CDISC009","DEV0009",10,"PLACEBO",0,"mg","INJECTION","QD","SUBCUTANEOUS","SDS580-485","TREATMENT","2012-10-31","2012-10-31",10,10],
["CDISCPILOT01","EX","CDISC009","DEV0009",11,"PLACEBO",0,"mg","INJECTION","QD","SUBCUTANEOUS","SDS580-485","TREATMENT","2012-11-01","2012-11-01",11,11],
["CDISCPILOT01","EX","CDISC009","DEV0009",12,"PLACEBO",0,"mg","INJECTION","QD","SUBCUTANEOUS","SDS580-485","TREATMENT","2012-11-02","2012-11-02",12,12],
["CDISCPILOT01","EX","CDISC009","DEV0009",13,"PLACEBO",0,"mg","INJECTION","QD","SUBCUTANEOUS","SDS580-485","TREATMENT","2012-11-03","2012-11-03",13,13],
["CDISCPILOT01","EX","CDISC009","DEV0009",14,"PLACEBO",0,"mg","INJECTION","QD","SUBCUTANEOUS","SDS580-485","TREATMENT","2012-11-04","2012-11-04",14,14],
["CDISCPILOT01","EX","CDISC009","DEV0009",15,"PLACEBO",0,"mg","INJECTION","QD","SUBCUTANEOUS","SDS580-485","TREATMENT","2012-11-05","2012-11-05",15,15],
["CDISCPILOT01","EX","CDISC009","DEV0009",16,"PLACEBO",0,"mg","INJECTION","QD","SUBCUTANEOUS","SDS580-485","TREATMENT","2012-11-06","2012-11-06",16,16],
["CDISCPILOT01","EX","CDISC009","DEV0009",17,"PLACEBO",0,"mg","INJECTION","QD","SUBCUTANEOUS","SDS580-485","TREATMENT","2012-11-07","2012-11-07",17,17],
["CDISCPILOT01","EX","CDISC009","DEV0009",18,"PLACEBO",0,"mg","INJECTION","QD","SUBCUTANEOUS","SDS580-485","TREATMENT","2012-11-08","2012-11-08",18,18],
["CDISCPILOT01","EX","CDISC009","DEV0009",19,"PLACEBO",0,"mg","INJECTION","QD","SUBCUTANEOUS","SDS580-485","TREATMENT","2012-11-09","2012-11-09",19,19],
["CDISCPILOT01","EX","CDISC009","DEV0009",20,"PLACEBO",0,"mg","INJECTION","QD","SUBCUTANEOUS","SDS580-485","TREATMENT","2012-11-10","2012-11-10",20,20],
["CDISCPILOT01","EX","CDISC009","DEV0009",21,"PLACEBO",0,"mg","INJECTION","QD","SUBCUTANEOUS","SDS580-485","TREATMENT","2012-11-11","2012-11-11",21,21],
["CDISCPILOT01","EX","CDISC009","DEV0009",22,"PLACEBO",0,"mg","INJECTION","QD","SUBCUTANEOUS","SDS580-485","TREATMENT","2012-11-12","2012-11-12",22,22],
["CDISCPILOT01","EX","CDISC009","DEV0009",23,"PLACEBO",0,"mg","INJECTION","QD","SUBCUTANEOUS","SDS580-485","TREATMENT","2012-11-13","2012-11-13",23,23],
["CDISCPILOT01","EX","CDISC009","DEV0009",24,"PLACEBO",0,"mg","INJECTION","QD","SUBCUTANEOUS","SDS580-485","TREATMENT","2012-11-14","2012-11-14",24,24],
["CDISCPILOT01","EX","CDISC009","DEV0009",25,"PLACEBO",0,"mg","INJECTION","QD","SUBCUTANEOUS","SDS580-485","TREATMENT","2012-11-15","2012-11-15",25,25],
["CDISCPILOT01","EX","CDISC009","DEV0009",26,"PLACEBO",0,"mg","INJECTION","QD","SUBCUTANEOUS","SDS580-485","TREATMENT","2012-11-16","2012-11-16",26,26],
["CDISCPILOT01","EX","CDISC009","DEV0009",27,"PLACEBO",0,"mg","INJECTION","QD","SUBCUTANEOUS","SDS580-485","TREATMENT","2012-11-17","2012-11-17",27,27],
["CDISCPILOT01","EX","CDISC009","DEV0009",28,"PLACEBO",0,"mg","INJECTION","QD","SUBCUTANEOUS","SDS580-485","TREATMENT","2012-11-18","2012-11-18",28,28],
["CDISCPILOT01","EX","CDISC009","DEV0009",29,"PLACEBO",0,"mg","INJECTION","QD","SUBCUTANEOUS","SDS580-485","TREATMENT","2012-11-19","2012-11-19",29,29],
["CDISCPILOT01","EX","CDISC009","DEV0009",30,"PLACEBO",0,"mg","INJECTION","QD","SUBCUTANEOUS","SDS580-485","TREATMENT","2012-11-20","2012-11-20",30,30],
["CDISCPILOT01","EX","CDISC009","DEV0009",31,"PLACEBO",0,"mg","INJECTION","QD","SUBCUTANEOUS","SDS580-485","TREATMENT","2012-11-21","2012-11-21",31,31],
["CDISCPILOT01","EX","CDISC009","DEV0009",32,"PLACEBO",0,"mg","INJECTION","QD","SUBCUTANEOUS","SDS580-485","TREATMENT","2012-11-22","2012-11-22",32,32],
["CDISCPILOT01","EX","CDISC009","DEV0009",33,"PLACEBO",0,"mg","INJECTION","QD","SUBCUTANEOUS","SDS580-485","TREATMENT","2012-11-23","2012-11-23",33,33],
["CDISCPILOT01","EX","CDISC009","DEV0009",34,"PLACEBO",0,"mg","INJECTION","QD","SUBCUTANEOUS","SDS580-485","TREATMENT","2012-11-24","2012-11-24",34,34],
["CDISCPILOT01","EX","CDISC009","DEV0009",35,"PLACEBO",0,"mg","INJECTION","QD","SUBCUTANEOUS","SDS580-485","TREATMENT","2012-11-25","2012-11-25",35,35],
["CDISCPILOT01","EX","CDISC009","DEV0009",36,"PLACEBO",0,"mg","INJECTION","QD","SUBCUTANEOUS","SDS580-485","TREATMENT","2012-11-26","2012-11-26",36,36],
["CDISCPILOT01","EX","CDISC009","DEV0009",37,"PLACEBO",0,"mg","INJECTION","QD","SUBCUTANEOUS","SDS580-485","TREATMENT","2012-11-27","2012-11-27",37,37],
["CDISCPILOT01","EX","CDISC009","DEV0009",38,"PLACEBO",0,"mg","INJECTION","QD","SUBCUTANEOUS","SDS580-485","TREATMENT","2012-11-28","2012-11-28",38,38],
["CDISCPILOT01","EX","CDISC009","DEV0009",39,"PLACEBO",0,"mg","INJECTION","QD","SUBCUTANEOUS","SDS580-485","TREATMENT","2012-11-29","2012-11-29",39,39],
["CDISCPILOT01","EX","CDISC009","DEV0009",40,"PLACEBO",0,"mg","INJECTION","QD","SUBCUTANEOUS","SDS580-485","TREATMENT","2012-11-30","2012-11-30",40,40],
["CDISCPILOT01","EX","CDISC009","DEV0009",41,"PLACEBO",0,"mg","INJECTION","QD","SUBCUTANEOUS","SDS580-485","TREATMENT","2012-12-01","2012-12-01",41,41],
["CDISCPILOT01","EX","CDISC009","DEV0009",42,"PLACEBO",0,"mg","INJECTION","QD","SUBCUTANEOUS","SDS580-485","TREATMENT","2012-12-02","2012-12-02",42,42],
["CDISCPILOT01","EX","CDISC009","DEV0009",43,"PLACEBO",0,"mg","INJECTION","QD","SUBCUTANEOUS","SDS580-485","TREATMENT","2012-12-03","2012-12-03",43,43],
["CDISCPILOT01","EX","CDISC009","DEV0009",44,"PLACEBO",0,"mg","INJECTION","QD","SUBCUTANEOUS","SDS580-485","TREATMENT","2012-12-04","2012-12-04",44,44],
["CDISCPILOT01","EX","CDISC009","DEV0009",45,"PLACEBO",0,"mg","INJECTION","QD","SUBCUTANEOUS","SDS580-485","TREATMENT","2012-12-05","2012-12-05",45,45],
["CDISCPILOT01","EX","CDISC009","DEV0009",46,"PLACEBO",0,"mg","INJECTION","QD","SUBCUTANEOUS","SDS580-485","TREATMENT","2012-12-06","2012-12-06",46,46],
["CDISCPILOT01","EX","CDISC009","DEV0009",47,"PLACEBO",0,"mg","INJECTION","QD","SUBCUTANEOUS","SDS580-485","TREATMENT","2012-12-07","2012-12-07",47,47],
["CDISCPILOT01","EX","CDISC009","DEV0009",48,"PLACEBO",0,"mg","INJECTION","QD","SUBCUTANEOUS","SDS580-485","TREATMENT","2012-12-08","2012-12-08",48,48],
["CDISCPILOT01","EX","CDISC009","DEV0009",49,"PLACEBO",0,"mg","INJECTION","QD","SUBCUTANEOUS","SDS580-485","TREATMENT","2012-12-09","2012-12-09",49,49],
["CDISCPILOT01","EX","CDISC009","DEV0009",50,"PLACEBO",0,"mg","INJECTION","QD","SUBCUTANEOUS","SDS580-485","TREATMENT","2012-12-10","2012-12-10",50,50],
["CDISCPILOT01","EX","CDISC009","DEV0009",51,"PLACEBO",0,"mg","INJECTION","QD","SUBCUTANEOUS","SDS580-485","TREATMENT","2012-12-11","2012-12-11",51,51],
["CDISCPILOT01","EX","CDISC009","DEV0009",52,"PLACEBO",0,"mg","INJECTION","QD","SUBCUTANEOUS","SDS580-485","TREATMENT","2012-12-12","2012-12-12",52,52],
["CDISCPILOT01","EX","CDISC009","DEV0009",53,"PLACEBO",0,"mg","INJECTION","QD","SUBCUTANEOUS","SDS580-485","TREATMENT","2012-12-13","2012-12-13",53,53],
["CDISCPILOT01","EX","CDISC009","DEV0009",54,"PLACEBO",0,"mg","INJECTION","QD","SUBCUTANEOUS","SDS580-485","TREATMENT","2012-12-14","2012-12-14",54,54],
["CDISCPILOT01","EX","CDISC009","DEV0009",55,"PLACEBO",0,"mg","INJECTION","QD","SUBCUTANEOUS","SDS580-485","TREATMENT","2012-12-15","2012-12-15",55,55],
["CDISCPILOT01","EX","CDISC009","DEV0009",56,"PLACEBO",0,"mg","INJECTION","QD","SUBCUTANEOUS","SDS580-485","TREATMENT","2012-12-16","2012-12-16",56,56],
["CDISCPILOT01","EX","CDISC009","DEV0009",57,"PLACEBO",0,"mg","INJECTION","QD","SUBCUTANEOUS","SDS580-485","TREATMENT","2012-12-17","2012-12-17",57,57],
["CDISCPILOT01","EX","CDISC009","DEV0009",58,"PLACEBO",0,"mg","INJECTION","QD","SUBCUTANEOUS","SDS580-485","TREATMENT","2012-12-18","2012-12-18",58,58],
["CDISCPILOT01","EX","CDISC009","DEV0009",59,"PLACEBO",0,"mg","INJECTION","QD","SUBCUTANEOUS","SDS580-485","TREATMENT","2012-12-19","2012-12-19",59,59],
["CDISCPILOT01","EX","CDISC009","DEV0009",60,"PLACEBO",0,"mg","INJECTION","QD","SUBCUTANEOUS","SDS580-485","TREATMENT","2012-12-20","2012-12-20",60,60],
["CDISCPILOT01","EX","CDISC009","DEV0009",61,"PLACEBO",0,"mg","INJECTION","QD","SUBCUTANEOUS","SDS580-485","TREATMENT","2012-12-21","2012-12-21",61,61],
["CDISCPILOT01","EX","CDISC009","DEV0009",62,"PLACEBO",0,"mg","INJECTION","QD","SUBCUTANEOUS","SDS580-485","TREATMENT","2012-12-22","2012-12-22",62,62],
["CDISCPILOT01","EX","CDISC009","DEV0009",63,"PLACEBO",0,"mg","INJECTION","QD","SUBCUTANEOUS","SDS580-485","TREATMENT","2012-12-23","2012-12-23",63,63],
["CDISCPILOT01","EX","CDISC009","DEV0009",64,"PLACEBO",0,"mg","INJECTION","QD","SUBCUTANEOUS","SDS580-485","TREATMENT","2012-12-24","2012-12-24",64,64],
["CDISCPILOT01","EX","CDISC009","DEV0009",65,"PLACEBO",0,"mg","INJECTION","QD","SUBCUTANEOUS","SDS580-485","TREATMENT","2012-12-25","2012-12-25",65,65],
["CDISCPILOT01","EX","CDISC009","DEV0009",66,"PLACEBO",0,"mg","INJECTION","QD","SUBCUTANEOUS","SDS580-485","TREATMENT","2012-12-26","2012-12-26",66,66],
["CDISCPILOT01","EX","CDISC009","DEV0009",67,"PLACEBO",0,"mg","INJECTION","QD","SUBCUTANEOUS","SDS580-485","TREATMENT","2012-12-27","2012-12-27",67,67],
["CDISCPILOT01","EX","CDISC009","DEV0009",68,"PLACEBO",0,"mg","INJECTION","QD","SUBCUTANEOUS","SDS580-485","TREATMENT","2012-12-28","2012-12-28",68,68],
["CDISCPILOT01","EX","CDISC009","DEV0009",69,"PLACEBO",0,"mg","INJECTION","QD","SUBCUTANEOUS","SDS580-485","TREATMENT","2012-12-29","2012-12-29",69,69],
["CDISCPILOT01","EX","CDISC009","DEV0009",70,"PLACEBO",0,"mg","INJECTION","QD","SUBCUTANEOUS","SDS580-485","TREATMENT","2012-12-30","2012-12-30",70,70],
["CDISCPILOT01","EX","CDISC009","DEV0009",71,"PLACEBO",0,"mg","INJECTION","QD","SUBCUTANEOUS","SDS580-485","TREATMENT","2012-12-31","2012-12-31",71,71],
["CDISCPILOT01","EX","CDISC009","DEV0009",72,"PLACEBO",0,"mg","INJECTION","QD","SUBCUTANEOUS","SDS580-485","TREATMENT","2013-01-01","2013-01-01",72,72],
["CDISCPILOT01","EX","CDISC009","DEV0009",73,"PLACEBO",0,"mg","INJECTION","QD","SUBCUTANEOUS","SDS580-485","TREATMENT","2013-01-02","2013-01-02",73,73],
["CDISCPILOT01","EX","CDISC009","DEV0009",74,"PLACEBO",0,"mg","INJECTION","QD","SUBCUTANEOUS","SDS580-485","TREATMENT","2013-01-03","2013-01-03",74,74],
["CDISCPILOT01","EX","CDISC009","DEV0009",75,"PLACEBO",0,"mg","INJECTION","QD","SUBCUTANEOUS","SDS580-485","TREATMENT","2013-01-04","2013-01-04",75,75],
["CDISCPILOT01","EX","CDISC009","DEV0009",76,"PLACEBO",0,"mg","INJECTION","QD","SUBCUTANEOUS","SDS580-485","TREATMENT","2013-01-05","2013-01-05",76,76],
["CDISCPILOT01","EX","CDISC009","DEV0009",77,"PLACEBO",0,"mg","INJECTION","QD","SUBCUTANEOUS","SDS580-485","TREATMENT","2013-01-06","2013-01-06",77,77],
["CDISCPILOT01","EX","CDISC009","DEV0009",78,"PLACEBO",0,"mg","INJECTION","QD","SUBCUTANEOUS","SDS580-485","TREATMENT","2013-01-07","2013-01-07",78,78],
["CDISCPILOT01","EX","CDISC009","DEV0009",79,"PLACEBO",0,"mg","INJECTION","QD","SUBCUTANEOUS","SDS580-485","TREATMENT","2013-01-08","2013-01-08",79,79],
["CDISCPILOT01","EX","CDISC009","DEV0009",80,"PLACEBO",0,"mg","INJECTION","QD","SUBCUTANEOUS","SDS580-485","TREATMENT","2013-01-09","2013-01-09",80,80],
["CDISCPILOT01","EX","CDISC009","DEV0009",81,"PLACEBO",0,"mg","INJECTION","QD","SUBCUTANEOUS","SDS580-485","TREATMENT","2013-01-10","2013-01-10",81,81],
["CDISCPILOT01","EX","CDISC009","DEV0009",82,"PLACEBO",0,"mg","INJECTION","QD","SUBCUTANEOUS","SDS580-485","TREATMENT","2013-01-11","2013-01-11",82,82],
["CDISCPILOT01","EX","CDISC009","DEV0009",83,"PLACEBO",0,"mg","INJECTION","QD","SUBCUTANEOUS","SDS580-485","TREATMENT","2013-01-12","2013-01-12",83,83],
["CDISCPILOT01","EX","CDISC009","DEV0009",84,"PLACEBO",0,"mg","INJECTION","QD","SUBCUTANEOUS","SDS580-485","TREATMENT","2013-01-13","2013-01-13",84,84],
["CDISCPILOT01","EX","CDISC009","DEV0009",85,"PLACEBO",0,"mg","INJECTION","QD","SUBCUTANEOUS","SDS580-485","TREATMENT","2013-01-14","2013-01-14",85,85],
["CDISCPILOT01","EX","CDISC009","DEV0009",86,"PLACEBO",0,"mg","INJECTION","QD","SUBCUTANEOUS","SDS580-485","TREATMENT","2013-01-15","2013-01-15",86,86],
["CDISCPILOT01","EX","CDISC009","DEV0009",87,"PLACEBO",0,"mg","INJECTION","QD","SUBCUTANEOUS","SDS580-485","TREATMENT","2013-01-16","2013-01-16",87,87],
["CDISCPILOT01","EX","CDISC009","DEV0009",88,"PLACEBO",0,"mg","INJECTION","QD","SUBCUTANEOUS","SDS580-485","TREATMENT","2013-01-17","2013-01-17",88,88],
["CDISCPILOT01","EX","CDISC009","DEV0009",89,"PLACEBO",0,"mg","INJECTION","QD","SUBCUTANEOUS","SDS580-485","TREATMENT","2013-01-18","2013-01-18",89,89],
["CDISCPILOT01","EX","CDISC009","DEV0009",90,"PLACEBO",0,"mg","INJECTION","QD","SUBCUTANEOUS","SDS580-485","TREATMENT","2013-01-19","2013-01-19",90,90],
["CDISCPILOT01","EX","CDISC009","DEV0009",91,"PLACEBO",0,"mg","INJECTION","QD","SUBCUTANEOUS","SDS580-485","TREATMENT","2013-01-20","2013-01-20",91,91],
["CDISCPILOT01","EX","CDISC009","DEV0009",92,"PLACEBO",0,"mg","INJECTION","QD","SUBCUTANEOUS","SDS580-485","TREATMENT","2013-01-21","2013-01-21",92,92],
["CDISCPILOT01","EX","CDISC009","DEV0009",93,"PLACEBO",0,"mg","INJECTION","QD","SUBCUTANEOUS","SDS580-485","TREATMENT","2013-01-22","2013-01-22",93,93],
["CDISCPILOT01","EX","CDISC009","DEV0009",94,"PLACEBO",0,"mg","INJECTION","QD","SUBCUTANEOUS","SDS580-485","TREATMENT","2013-01-23","2013-01-23",94,94],
["CDISCPILOT01","EX","CDISC009","DEV0009",95,"PLACEBO",0,"mg","INJECTION","QD","SUBCUTANEOUS","SDS580-485","TREATMENT","2013-01-24","2013-01-24",95,95],
["CDISCPILOT01","EX","CDISC009","DEV0009",96,"PLACEBO",0,"mg","INJECTION","QD","SUBCUTANEOUS","SDS580-485","TREATMENT","2013-01-25","2013-01-25",96,96],
["CDISCPILOT01","EX","CDISC009","DEV0009",97,"PLACEBO",0,"mg","INJECTION","QD","SUBCUTANEOUS","SDS580-485","TREATMENT","2013-01-26","2013-01-26",97,97],
["CDISCPILOT01","EX","CDISC009","DEV0009",98,"PLACEBO",0,"mg","INJECTION","QD","SUBCUTANEOUS","SDS580-485","TREATMENT","2013-01-27","2013-01-27",98,98],
["CDISCPILOT01","EX","CDISC009","DEV0009",99,"PLACEBO",0,"mg","INJECTION","QD","SUBCUTANEOUS","SDS580-485","TREATMENT","2013-01-28","2013-01-28",99,99],
["CDISCPILOT01","EX","CDISC009","DEV0009",100,"PLACEBO",0,"mg","INJECTION","QD","SUBCUTANEOUS","SDS580-485","TREATMENT","2013-01-29","2013-01-29",100,100],
["CDISCPILOT01","EX","CDISC009","DEV0009",101,"PLACEBO",0,"mg","INJECTION","QD","SUBCUTANEOUS","SDS580-485","TREATMENT","2013-01-30","2013-01-30",101,101],
["CDISCPILOT01","EX","CDISC009","DEV0009",102,"PLACEBO",0,"mg","INJECTION","QD","SUBCUTANEOUS","SDS580-485","TREATMENT","2013-01-31","2013-01-31",102,102],
["CDISCPILOT01","EX","CDISC009","DEV0009",103,"PLACEBO",0,"mg","INJECTION","QD","SUBCUTANEOUS","SDS580-485","TREATMENT","2013-02-01","2013-02-01",103,103],
["CDISCPILOT01","EX","CDISC009","DEV0009",104,"PLACEBO",0,"mg","INJECTION","QD","SUBCUTANEOUS","SDS580-485","TREATMENT","2013-02-02","2013-02-02",104,104],
["CDISCPILOT01","EX","CDISC009","DEV0009",105,"PLACEBO",0,"mg","INJECTION","QD","SUBCUTANEOUS","SDS580-485","TREATMENT","2013-02-03","2013-02-03",105,105],
["CDISCPILOT01","EX","CDISC009","DEV0009",106,"PLACEBO",0,"mg","INJECTION","QD","SUBCUTANEOUS","SDS580-485","TREATMENT","2013-02-04","2013-02-04",106,106],
["CDISCPILOT01","EX","CDISC009","DEV0009",107,"PLACEBO",0,"mg","INJECTION","QD","SUBCUTANEOUS","SDS580-485","TREATMENT","2013-02-05","2013-02-05",107,107],
["CDISCPILOT01","EX","CDISC009","DEV0009",108,"PLACEBO",0,"mg","INJECTION","QD","SUBCUTANEOUS","SDS580-485","TREATMENT","2013-02-06","2013-02-06",108,108],
["CDISCPILOT01","EX","CDISC009","DEV0009",109,"PLACEBO",0,"mg","INJECTION","QD","SUBCUTANEOUS","SDS580-485","TREATMENT","2013-02-07","2013-02-07",109,109],
["CDISCPILOT01","EX","CDISC009","DEV0009",110,"PLACEBO",0,"mg","INJECTION","QD","SUBCUTANEOUS","SDS580-485","TREATMENT","2013-02-08","2013-02-08",110,110],
["CDISCPILOT01","EX","CDISC009","DEV0009",111,"PLACEBO",0,"mg","INJECTION","QD","SUBCUTANEOUS","SDS580-485","TREATMENT","2013-02-09","2013-02-09",111,111],
["CDISCPILOT01","EX","CDISC009","DEV0009",112,"PLACEBO",0,"mg","INJECTION","QD","SUBCUTANEOUS","SDS580-485","TREATMENT","2013-02-10","2013-02-10",112,112],
["CDISCPILOT01","EX","CDISC009","DEV0009",113,"PLACEBO",0,"mg","INJECTION","QD","SUBCUTANEOUS","SDS580-485","TREATMENT","2013-02-11","2013-02-11",113,113],
["CDISCPILOT01","EX","CDISC009","DEV0009",114,"PLACEBO",0,"mg","INJECTION","QD","SUBCUTANEOUS","SDS580-485","TREATMENT","2013-02-12","2013-02-12",114,114],
["CDISCPILOT01","EX","CDISC009","DEV0009",115,"PLACEBO",0,"mg","INJECTION","QD","SUBCUTANEOUS","SDS580-485","TREATMENT","2013-02-13","2013-02-13",115,115],
["CDISCPILOT01","EX","CDISC009","DEV0009",116,"PLACEBO",0,"mg","INJECTION","QD","SUBCUTANEOUS","SDS580-485","TREATMENT","2013-02-14","2013-02-14",116,116],
["CDISCPILOT01","EX","CDISC009","DEV0009",117,"PLACEBO",0,"mg","INJECTION","QD","SUBCUTANEOUS","SDS580-485","TREATMENT","2013-02-15","2013-02-15",117,117],
["CDISCPILOT01","EX","CDISC009","DEV0009",118,"PLACEBO",0,"mg","INJECTION","QD","SUBCUTANEOUS","SDS580-485","TREATMENT","2013-02-16","2013-02-16",118,118],
["CDISCPILOT01","EX","CDISC009","DEV0009",119,"PLACEBO",0,"mg","INJECTION","QD","SUBCUTANEOUS","SDS580-485","TREATMENT","2013-02-17","2013-02-17",119,119],
["CDISCPILOT01","EX","CDISC009","DEV0009",120,"PLACEBO",0,"mg","INJECTION","QD","SUBCUTANEOUS","SDS580-485","TREATMENT","2013-02-18","2013-02-18",120,120],
["CDISCPILOT01","EX","CDISC009","DEV0009",121,"PLACEBO",0,"mg","INJECTION","QD","SUBCUTANEOUS","SDS580-485","TREATMENT","2013-02-19","2013-02-19",121,121],
["CDISCPILOT01","EX","CDISC009","DEV0009",129,"PLACEBO",0,"mg","INJECTION","QD","SUBCUTANEOUS","SDS580-485","TREATMENT","2013-02-27","2013-02-27",129,129],
["CDISCPILOT01","EX","CDISC009","DEV0009",130,"PLACEBO",0,"mg","INJECTION","QD","SUBCUTANEOUS","SDS580-485","TREATMENT","2013-02-28","2013-02-28",130,130],
["CDISCPILOT01","EX","CDISC009","DEV0009",131,"PLACEBO",0,"mg","INJECTION","QD","SUBCUTANEOUS","SDS580-485","TREATMENT","2013-03-01","2013-03-01",131,131],
["CDISCPILOT01","EX","CDISC009","DEV0009",132,"PLACEBO",0,"mg","INJECTION","QD","SUBCUTANEOUS","SDS580-485","TREATMENT","2013-03-02","2013-03-02",132,132],
["CDISCPILOT01","EX","CDISC009","DEV0009",133,"PLACEBO",0,"mg","INJECTION","QD","SUBCUTANEOUS","SDS580-485","TREATMENT","2013-03-03","2013-03-03",133,133],
["CDISCPILOT01","EX","CDISC009","DEV0009",134,"PLACEBO",0,"mg","INJECTION","QD","SUBCUTANEOUS","SDS580-485","TREATMENT","2013-03-04","2013-03-04",134,134],
["CDISCPILOT01","EX","CDISC009","DEV0009",135,"PLACEBO",0,"mg","INJECTION","QD","SUBCUTANEOUS","SDS580-485","TREATMENT","2013-03-05","2013-03-05",135,135],
["CDISCPILOT01","EX","CDISC009","DEV0009",136,"PLACEBO",0,"mg","INJECTION","QD","SUBCUTANEOUS","SDS580-485","TREATMENT","2013-03-06","2013-03-06",136,136],
["CDISCPILOT01","EX","CDISC009","DEV0009",137,"PLACEBO",0,"mg","INJECTION","QD","SUBCUTANEOUS","SDS580-485","TREATMENT","2013-03-07","2013-03-07",137,137],
["CDISCPILOT01","EX","CDISC009","DEV0009",138,"PLACEBO",0,"mg","INJECTION","QD","SUBCUTANEOUS","SDS580-485","TREATMENT","2013-03-08","2013-03-08",138,138],
["CDISCPILOT01","EX","CDISC009","DEV0009",139,"PLACEBO",0,"mg","INJECTION","QD","SUBCUTANEOUS","SDS580-485","TREATMENT","2013-03-09","2013-03-09",139,139],
["CDISCPILOT01","EX","CDISC009","DEV0009",140,"PLACEBO",0,"mg","INJECTION","QD","SUBCUTANEOUS","SDS580-485","TREATMENT","2013-03-10","2013-03-10",140,140],
["CDISCPILOT01","EX","CDISC009","DEV0009",141,"PLACEBO",0,"mg","INJECTION","QD","SUBCUTANEOUS","SDS580-485","TREATMENT","2013-03-11","2013-03-11",141,141],
["CDISCPILOT01","EX","CDISC009","DEV0009",142,"PLACEBO",0,"mg","INJECTION","QD","SUBCUTANEOUS","SDS580-485","TREATMENT","2013-03-12","2013-03-12",142,142],
["CDISCPILOT01","EX","CDISC009","DEV0009",143,"PLACEBO",0,"mg","INJECTION","QD","SUBCUTANEOUS","SDS580-485","TREATMENT","2013-03-13","2013-03-13",143,143],
["CDISCPILOT01","EX","CDISC009","DEV0009",144,"PLACEBO",0,"mg","INJECTION","QD","SUBCUTANEOUS","SDS580-485","TREATMENT","2013-03-14","2013-03-14",144,144],
["CDISCPILOT01","EX","CDISC009","DEV0009",145,"PLACEBO",0,"mg","INJECTION","QD","SUBCUTANEOUS","SDS580-485","TREATMENT","2013-03-15","2013-03-15",145,145],
["CDISCPILOT01","EX","CDISC009","DEV0009",146,"PLACEBO",0,"mg","INJECTION","QD","SUBCUTANEOUS","SDS580-485","TREATMENT","2013-03-16","2013-03-16",146,146],
["CDISCPILOT01","EX","CDISC009","DEV0009",147,"PLACEBO",0,"mg","INJECTION","QD","SUBCUTANEOUS","SDS580-485","TREATMENT","2013-03-17","2013-03-17",147,147],
["CDISCPILOT01","EX","CDISC009","DEV0009",148,"PLACEBO",0,"mg","INJECTION","QD","SUBCUTANEOUS","SDS580-485","TREATMENT","2013-03-18","2013-03-18",148,148],
["CDISCPILOT01","EX","CDISC009","DEV0009",149,"PLACEBO",0,"mg","INJECTION","QD","SUBCUTANEOUS","SDS580-485","TREATMENT","2013-03-19","2013-03-19",149,149],
["CDISCPILOT01","EX","CDISC009","DEV0009",150,"PLACEBO",0,"mg","INJECTION","QD","SUBCUTANEOUS","SDS580-485","TREATMENT","2013-03-20","2013-03-20",150,150],
["CDISCPILOT01","EX","CDISC009","DEV0009",151,"PLACEBO",0,"mg","INJECTION","QD","SUBCUTANEOUS","SDS580-485","TREATMENT","2013-03-21","2013-03-21",151,151],
["CDISCPILOT01","EX","CDISC009","DEV0009",152,"PLACEBO",0,"mg","INJECTION","QD","SUBCUTANEOUS","SDS580-485","TREATMENT","2013-03-22","2013-03-22",152,152],
["CDISCPILOT01","EX","CDISC009","DEV0009",153,"PLACEBO",0,"mg","INJECTION","QD","SUBCUTANEOUS","SDS580-485","TREATMENT","2013-03-23","2013-03-23",153,153],
["CDISCPILOT01","EX","CDISC009","DEV0009",154,"PLACEBO",0,"mg","INJECTION","QD","SUBCUTANEOUS","SDS580-485","TREATMENT","2013-03-24","2013-03-24",154,154],
["CDISCPILOT01","EX","CDISC009","DEV0009",155,"PLACEBO",0,"mg","INJECTION","QD","SUBCUTANEOUS","SDS580-485","TREATMENT","2013-03-25","2013-03-25",155,155],
["CDISCPILOT01","EX","CDISC009","DEV0009",156,"PLACEBO",0,"mg","INJECTION","QD","SUBCUTANEOUS","SDS580-485","TREATMENT","2013-03-26","2013-03-26",156,156],
["CDISCPILOT01","EX","CDISC009","DEV0009",157,"PLACEBO",0,"mg","INJECTION","QD","SUBCUTANEOUS","SDS580-485","TREATMENT","2013-03-27","2013-03-27",157,157],
["CDISCPILOT01","EX","CDISC009","DEV0009",158,"PLACEBO",0,"mg","INJECTION","QD","SUBCUTANEOUS","SDS580-485","TREATMENT","2013-03-28","2013-03-28",158,158],
["CDISCPILOT01","EX","CDISC009","DEV0009",159,"PLACEBO",0,"mg","INJECTION","QD","SUBCUTANEOUS","SDS580-485","TREATMENT","2013-03-29","2013-03-29",159,159],
["CDISCPILOT01","EX","CDISC009","DEV0009",160,"PLACEBO",0,"mg","INJECTION","QD","SUBCUTANEOUS","SDS580-485","TREATMENT","2013-03-30","2013-03-30",160,160],
["CDISCPILOT01","EX","CDISC009","DEV0009",161,"PLACEBO",0,"mg","INJECTION","QD","SUBCUTANEOUS","SDS580-485","TREATMENT","2013-03-31","2013-03-31",161,161],
["CDISCPILOT01","EX","CDISC009","DEV0009",162,"PLACEBO",0,"mg","INJECTION","QD","SUBCUTANEOUS","SDS580-485","TREATMENT","2013-04-01","2013-04-01",162,162],
["CDISCPILOT01","EX","CDISC009","DEV0009",163,"PLACEBO",0,"mg","INJECTION","QD","SUBCUTANEOUS","SDS580-485","TREATMENT","2013-04-02","2013-04-02",163,163],
["CDISCPILOT01","EX","CDISC009","DEV0009",164,"PLACEBO",0,"mg","INJECTION","QD","SUBCUTANEOUS","SDS580-485","TREATMENT","2013-04-03","2013-04-03",164,164],
["CDISCPILOT01","EX","CDISC009","DEV0009",165,"PLACEBO",0,"mg","INJECTION","QD","SUBCUTANEOUS","SDS580-485","TREATMENT","2013-04-04","2013-04-04",165,165],
["CDISCPILOT01","EX","CDISC009","DEV0009",166,"PLACEBO",0,"mg","INJECTION","QD","SUBCUTANEOUS","SDS580-485","TREATMENT","2013-04-05","2013-04-05",166,166],
["CDISCPILOT01","EX","CDISC009","DEV0009",167,"PLACEBO",0,"mg","INJECTION","QD","SUBCUTANEOUS","SDS580-485","TREATMENT","2013-04-06","2013-04-06",167,167],
["CDISCPILOT01","EX","CDISC009","DEV0009",168,"PLACEBO",0,"mg","INJECTION","QD","SUBCUTANEOUS","SDS580-485","TREATMENT","2013-04-07","2013-04-07",168,168],
["CDISCPILOT01","EX","CDISC009","DEV0009",169,"PLACEBO",0,"mg","INJECTION","QD","SUBCUTANEOUS","SDS580-485","TREATMENT","2013-04-08","2013-04-08",169,169],
["CDISCPILOT01","EX","CDISC009","DEV0009",170,"PLACEBO",0,"mg","INJECTION","QD","SUBCUTANEOUS","SDS580-485","TREATMENT","2013-04-09","2013-04-09",170,170],
["CDISCPILOT01","EX","CDISC009","DEV0009",171,"PLACEBO",0,"mg","INJECTION","QD","SUBCUTANEOUS","SDS580-485","TREATMENT","2013-04-10","2013-04-10",171,171],
["CDISCPILOT01","EX","CDISC009","DEV0009",172,"PLACEBO",0,"mg","INJECTION","QD","SUBCUTANEOUS","SDS580-485","TREATMENT","2013-04-11","2013-04-11",172,172],
["CDISCPILOT01","EX","CDISC009","DEV0009",173,"PLACEBO",0,"mg","INJECTION","QD","SUBCUTANEOUS","SDS580-485","TREATMENT","2013-04-12","2013-04-12",173,173],
["CDISCPILOT01","EX","CDISC009","DEV0009",174,"PLACEBO",0,"mg","INJECTION","QD","SUBCUTANEOUS","SDS580-485","TREATMENT","2013-04-13","2013-04-13",174,174],
["CDISCPILOT01","EX","CDISC009","DEV0009",175,"PLACEBO",0,"mg","INJECTION","QD","SUBCUTANEOUS","SDS580-485","TREATMENT","2013-04-14","2013-04-14",175,175],
["CDISCPILOT01","EX","CDISC009","DEV0009",176,"PLACEBO",0,"mg","INJECTION","QD","SUBCUTANEOUS","SDS580-485","TREATMENT","2013-04-15","2013-04-15",176,176],
["CDISCPILOT01","EX","CDISC009","DEV0009",177,"PLACEBO",0,"mg","INJECTION","QD","SUBCUTANEOUS","SDS580-485","TREATMENT","2013-04-16","2013-04-16",177,177],
["CDISCPILOT01","EX","CDISC009","DEV0009",178,"PLACEBO",0,"mg","INJECTION","QD","SUBCUTANEOUS","SDS580-485","TREATMENT","2013-04-17","2013-04-17",178,178],
["CDISCPILOT01","EX","CDISC009","DEV0009",179,"PLACEBO",0,"mg","INJECTION","QD","SUBCUTANEOUS","SDS580-485","TREATMENT","2013-04-18","2013-04-18",179,179],
["CDISCPILOT01","EX","CDISC009","DEV0009",180,"PLACEBO",0,"mg","INJECTION","QD","SUBCUTANEOUS","SDS580-485","TREATMENT","2013-04-19","2013-04-19",180,180],
["CDISCPILOT01","EX","CDISC009","DEV0009",181,"PLACEBO",0,"mg","INJECTION","QD","SUBCUTANEOUS","SDS580-485","TREATMENT","2013-04-20","2013-04-20",181,181],
["CDISCPILOT01","EX","CDISC009","DEV0009",182,"PLACEBO",0,"mg","INJECTION","QD","SUBCUTANEOUS","SDS580-485","TREATMENT","2013-04-21","2013-04-21",182,182],
["CDISCPILOT01","EX","CDISC009","DEV0009",183,"PLACEBO",0,"mg","INJECTION","QD","SUBCUTANEOUS","SDS580-485","TREATMENT","2013-04-22","2013-04-22",183,183],
["CDISCPILOT01","EX","CDISC009","DEV0009",184,"PLACEBO",0,"mg","INJECTION","QD","SUBCUTANEOUS","SDS580-485","TREATMENT","2013-04-23","2013-04-23",184,184],
["CDISCPILOT01","EX","CDISC009","DEV0009",185,"PLACEBO",0,"mg","INJECTION","QD","SUBCUTANEOUS","SDS580-485","TREATMENT","2013-04-24","2013-04-24",185,185],
["CDISCPILOT01","EX","CDISC009","DEV0009",186,"PLACEBO",0,"mg","INJECTION","QD","SUBCUTANEOUS","SDS580-485","TREATMENT","2013-04-25","2013-04-25",186,186],
["CDISCPILOT01","EX","CDISC009","DEV0009",187,"PLACEBO",0,"mg","INJECTION","QD","SUBCUTANEOUS","SDS580-485","TREATMENT","2013-04-26","2013-04-26",187,187],
["CDISCPILOT01","EX","CDISC009","DEV0009",188,"PLACEBO",0,"mg","INJECTION","QD","SUBCUTANEOUS","SDS580-485","TREATMENT","2013-04-27","2013-04-27",188,188],
["CDISCPILOT01","EX","CDISC009","DEV0009",189,"PLACEBO",0,"mg","INJECTION","QD","SUBCUTANEOUS","SDS580-485","TREATMENT","2013-04-28","2013-04-28",189,189],
["CDISCPILOT01","EX","CDISC010","DEV0010",1,"ZANOMALINE",54,"mg","INJECTION","QD","SUBCUTANEOUS","SDS580-848","TREATMENT","2013-09-21","2013-09-21",1,1],
["CDISCPILOT01","EX","CDISC011","DEV0011",1,"ZANOMALINE",54,"mg","INJECTION","QD","SUBCUTANEOUS","SDS580-848","TREATMENT","2012-12-07","2012-12-07",1,1],
["CDISCPILOT01","EX","CDISC011","DEV0011",2,"ZANOMALINE",54,"mg","INJECTION","QD","SUBCUTANEOUS","SDS580-848","TREATMENT","2012-12-08","2012-12-08",2,2],
["CDISCPILOT01","EX","CDISC011","DEV0011",3,"ZANOMALINE",54,"mg","INJECTION","QD","SUBCUTANEOUS","SDS580-848","TREATMENT","2012-12-09","2012-12-09",3,3],
["CDISCPILOT01","EX","CDISC011","DEV0011",4,"ZANOMALINE",54,"mg","INJECTION","QD","SUBCUTANEOUS","SDS580-848","TREATMENT","2012-12-10","2012-12-10",4,4],
["CDISCPILOT01","EX","CDISC011","DEV0011",5,"ZANOMALINE",54,"mg","INJECTION","QD","SUBCUTANEOUS","SDS580-848","TREATMENT","2012-12-11","2012-12-11",5,5],
["CDISCPILOT01","EX","CDISC011","DEV0011",6,"ZANOMALINE",54,"mg","INJECTION","QD","SUBCUTANEOUS","SDS580-848","TREATMENT","2012-12-12","2012-12-12",6,6],
["CDISCPILOT01","EX","CDISC011","DEV0011",7,"ZANOMALINE",54,"mg","INJECTION","QD","SUBCUTANEOUS","SDS580-848","TREATMENT","2012-12-13","2012-12-13",7,7],
["CDISCPILOT01","EX","CDISC011","DEV0011",8,"ZANOMALINE",54,"mg","INJECTION","QD","SUBCUTANEOUS","SDS580-848","TREATMENT","2012-12-14","2012-12-14",8,8],
["CDISCPILOT01","EX","CDISC011","DEV0011",9,"ZANOMALINE",54,"mg","INJECTION","QD","SUBCUTANEOUS","SDS580-848","TREATMENT","2012-12-15","2012-12-15",9,9],
["CDISCPILOT01","EX","CDISC011","DEV0011",10,"ZANOMALINE",54,"mg","INJECTION","QD","SUBCUTANEOUS","SDS580-848","TREATMENT","2012-12-16","2012-12-16",10,10],
["CDISCPILOT01","EX","CDISC011","DEV0011",11,"ZANOMALINE",54,"mg","INJECTION","QD","SUBCUTANEOUS","SDS580-848","TREATMENT","2012-12-17","2012-12-17",11,11],
["CDISCPILOT01","EX","CDISC011","DEV0011",12,"ZANOMALINE",54,"mg","INJECTION","QD","SUBCUTANEOUS","SDS580-848","TREATMENT","2012-12-18","2012-12-18",12,12],
["CDISCPILOT01","EX","CDISC011","DEV0011",13,"ZANOMALINE",54,"mg","INJECTION","QD","SUBCUTANEOUS","SDS580-848","TREATMENT","2012-12-19","2012-12-19",13,13],
["CDISCPILOT01","EX","CDISC011","DEV0011",14,"ZANOMALINE",54,"mg","INJECTION","QD","SUBCUTANEOUS","SDS580-848","TREATMENT","2012-12-20","2012-12-20",14,14],
["CDISCPILOT01","EX","CDISC011","DEV0011",15,"ZANOMALINE",54,"mg","INJECTION","QD","SUBCUTANEOUS","SDS580-848","TREATMENT","2012-12-21","2012-12-21",15,15],
["CDISCPILOT01","EX","CDISC011","DEV0011",16,"ZANOMALINE",81,"mg","INJECTION","QD","SUBCUTANEOUS","SDS580-983","TREATMENT","2012-12-22","2012-12-22",16,16],
["CDISCPILOT01","EX","CDISC011","DEV0011",17,"ZANOMALINE",81,"mg","INJECTION","QD","SUBCUTANEOUS","SDS580-983","TREATMENT","2012-12-23","2012-12-23",17,17],
["CDISCPILOT01","EX","CDISC011","DEV0011",18,"ZANOMALINE",81,"mg","INJECTION","QD","SUBCUTANEOUS","SDS580-983","TREATMENT","2012-12-24","2012-12-24",18,18],
["CDISCPILOT01","EX","CDISC011","DEV0011",19,"ZANOMALINE",81,"mg","INJECTION","QD","SUBCUTANEOUS","SDS580-983","TREATMENT","2012-12-25","2012-12-25",19,19],
["CDISCPILOT01","EX","CDISC011","DEV0011",20,"ZANOMALINE",81,"mg","INJECTION","QD","SUBCUTANEOUS","SDS580-983","TREATMENT","2012-12-26","2012-12-26",20,20],
["CDISCPILOT01","EX","CDISC011","DEV0011",21,"ZANOMALINE",81,"mg","INJECTION","QD","SUBCUTANEOUS","SDS580-983","TREATMENT","2012-12-27","2012-12-27",21,21],
["CDISCPILOT01","EX","CDISC011","DEV0011",22,"ZANOMALINE",81,"mg","INJECTION","QD","SUBCUTANEOUS","SDS580-983","TREATMENT","2012-12-28","2012-12-28",22,22],
["CDISCPILOT01","EX","CDISC011","DEV0011",23,"ZANOMALINE",81,"mg","INJECTION","QD","SUBCUTANEOUS","SDS580-983","TREATMENT","2012-12-29","2012-12-29",23,23],
["CDISCPILOT01","EX","CDISC011","DEV0011",24,"ZANOMALINE",81,"mg","INJECTION","QD","SUBCUTANEOUS","SDS580-983","TREATMENT","2012-12-30","2012-12-30",24,24],
["CDISCPILOT01","EX","CDISC011","DEV0011",25,"ZANOMALINE",81,"mg","INJECTION","QD","SUBCUTANEOUS","SDS580-983","TREATMENT","2012-12-31","2012-12-31",25,25],
["CDISCPILOT01","EX","CDISC011","DEV0011",26,"ZANOMALINE",81,"mg","INJECTION","QD","SUBCUTANEOUS","SDS580-983","TREATMENT","2013-01-01","2013-01-01",26,26],
["CDISCPILOT01","EX","CDISC011","DEV0011",27,"ZANOMALINE",81,"mg","INJECTION","QD","SUBCUTANEOUS","SDS580-983","TREATMENT","2013-01-02","2013-01-02",27,27],
["CDISCPILOT01","EX","CDISC011","DEV0011",28,"ZANOMALINE",81,"mg","INJECTION","QD","SUBCUTANEOUS","SDS580-983","TREATMENT","2013-01-03","2013-01-03",28,28],
["CDISCPILOT01","EX","CDISC011","DEV0011",29,"ZANOMALINE",81,"mg","INJECTION","QD","SUBCUTANEOUS","SDS580-983","TREATMENT","2013-01-04","2013-01-04",29,29],
["CDISCPILOT01","EX","CDISC011","DEV0011",30,"ZANOMALINE",81,"mg","INJECTION","QD","SUBCUTANEOUS","SDS580-983","TREATMENT","2013-01-05","2013-01-05",30,30],
["CDISCPILOT01","EX","CDISC011","DEV0011",31,"ZANOMALINE",81,"mg","INJECTION","QD","SUBCUTANEOUS","SDS580-983","TREATMENT","2013-01-06","2013-01-06",31,31],
["CDISCPILOT01","EX","CDISC011","DEV0011",32,"ZANOMALINE",81,"mg","INJECTION","QD","SUBCUTANEOUS","SDS580-983","TREATMENT","2013-01-07","2013-01-07",32,32],
["CDISCPILOT01","EX","CDISC011","DEV0011",33,"ZANOMALINE",81,"mg","INJECTION","QD","SUBCUTANEOUS","SDS580-983","TREATMENT","2013-01-08","2013-01-08",33,33],
["CDISCPILOT01","EX","CDISC011","DEV0011",34,"ZANOMALINE",81,"mg","INJECTION","QD","SUBCUTANEOUS","SDS580-983","TREATMENT","2013-01-09","2013-01-09",34,34],
["CDISCPILOT01","EX","CDISC011","DEV0011",35,"ZANOMALINE",81,"mg","INJECTION","QD","SUBCUTANEOUS","SDS580-983","TREATMENT","2013-01-10","2013-01-10",35,35],
["CDISCPILOT01","EX","CDISC011","DEV0011",36,"ZANOMALINE",81,"mg","INJECTION","QD","SUBCUTANEOUS","SDS580-983","TREATMENT","2013-01-11","2013-01-11",36,36],
["CDISCPILOT01","EX","CDISC011","DEV0011",37,"ZANOMALINE",81,"mg","INJECTION","QD","SUBCUTANEOUS","SDS580-983","TREATMENT","2013-01-12","2013-01-12",37,37],
["CDISCPILOT01","EX","CDISC011","DEV0011",38,"ZANOMALINE",81,"mg","INJECTION","QD","SUBCUTANEOUS","SDS580-983","TREATMENT","2013-01-13","2013-01-13",38,38],
["CDISCPILOT01","EX","CDISC011","DEV0011",39,"ZANOMALINE",81,"mg","INJECTION","QD","SUBCUTANEOUS","SDS580-983","TREATMENT","2013-01-14","2013-01-14",39,39],
["CDISCPILOT01","EX","CDISC011","DEV0011",40,"ZANOMALINE",81,"mg","INJECTION","QD","SUBCUTANEOUS","SDS580-983","TREATMENT","2013-01-15","2013-01-15",40,40],
["CDISCPILOT01","EX","CDISC011","DEV0011",41,"ZANOMALINE",81,"mg","INJECTION","QD","SUBCUTANEOUS","SDS580-983","TREATMENT","2013-01-16","2013-01-16",41,41],
["CDISCPILOT01","EX","CDISC011","DEV0011",42,"ZANOMALINE",81,"mg","INJECTION","QD","SUBCUTANEOUS","SDS580-983","TREATMENT","2013-01-17","2013-01-17",42,42],
["CDISCPILOT01","EX","CDISC011","DEV0011",43,"ZANOMALINE",81,"mg","INJECTION","QD","SUBCUTANEOUS","SDS580-983","TREATMENT","2013-01-18","2013-01-18",43,43],
["CDISCPILOT01","EX","CDISC011","DEV0011",44,"ZANOMALINE",81,"mg","INJECTION","QD","SUBCUTANEOUS","SDS580-983","TREATMENT","2013-01-19","2013-01-19",44,44],
["CDISCPILOT01","EX","CDISC011","DEV0011",45,"ZANOMALINE",81,"mg","INJECTION","QD","SUBCUTANEOUS","SDS580-983","TREATMENT","2013-01-20","2013-01-20",45,45],
["CDISCPILOT01","EX","CDISC011","DEV0011",46,"ZANOMALINE",81,"mg","INJECTION","QD","SUBCUTANEOUS","SDS580-983","TREATMENT","2013-01-21","2013-01-21",46,46],
["CDISCPILOT01","EX","CDISC011","DEV0011",47,"ZANOMALINE",81,"mg","INJECTION","QD","SUBCUTANEOUS","SDS580-983","TREATMENT","2013-01-22","2013-01-22",47,47],
["CDISCPILOT01","EX","CDISC011","DEV0011",48,"ZANOMALINE",81,"mg","INJECTION","QD","SUBCUTANEOUS","SDS580-983","TREATMENT","2013-01-23","2013-01-23",48,48],
["CDISCPILOT01","EX","CDISC011","DEV0011",49,"ZANOMALINE",81,"mg","INJECTION","QD","SUBCUTANEOUS","SDS580-983","TREATMENT","2013-01-24","2013-01-24",49,49],
["CDISCPILOT01","EX","CDISC011","DEV0011",50,"ZANOMALINE",81,"mg","INJECTION","QD","SUBCUTANEOUS","SDS580-983","TREATMENT","2013-01-25","2013-01-25",50,50],
["CDISCPILOT01","EX","CDISC011","DEV0011",51,"ZANOMALINE",81,"mg","INJECTION","QD","SUBCUTANEOUS","SDS580-983","TREATMENT","2013-01-26","2013-01-26",51,51],
["CDISCPILOT01","EX","CDISC011","DEV0011",52,"ZANOMALINE",81,"mg","INJECTION","QD","SUBCUTANEOUS","SDS580-983","TREATMENT","2013-01-27","2013-01-27",52,52],
["CDISCPILOT01","EX","CDISC011","DEV0011",53,"ZANOMALINE",81,"mg","INJECTION","QD","SUBCUTANEOUS","SDS580-983","TREATMENT","2013-01-28","2013-01-28",53,53],
["CDISCPILOT01","EX","CDISC011","DEV0011",54,"ZANOMALINE",81,"mg","INJECTION","QD","SUBCUTANEOUS","SDS580-983","TREATMENT","2013-01-29","2013-01-29",54,54],
["CDISCPILOT01","EX","CDISC011","DEV0011",55,"ZANOMALINE",81,"mg","INJECTION","QD","SUBCUTANEOUS","SDS580-983","TREATMENT","2013-01-30","2013-01-30",55,55],
["CDISCPILOT01","EX","CDISC011","DEV0011",56,"ZANOMALINE",81,"mg","INJECTION","QD","SUBCUTANEOUS","SDS580-983","TREATMENT","2013-01-31","2013-01-31",56,56],
["CDISCPILOT01","EX","CDISC011","DEV0011",57,"ZANOMALINE",81,"mg","INJECTION","QD","SUBCUTANEOUS","SDS580-983","TREATMENT","2013-02-01","2013-02-01",57,57],
["CDISCPILOT01","EX","CDISC011","DEV0011",58,"ZANOMALINE",81,"mg","INJECTION","QD","SUBCUTANEOUS","SDS580-983","TREATMENT","2013-02-02","2013-02-02",58,58],
["CDISCPILOT01","EX","CDISC011","DEV0011",59,"ZANOMALINE",81,"mg","INJECTION","QD","SUBCUTANEOUS","SDS580-983","TREATMENT","2013-02-03","2013-02-03",59,59],
["CDISCPILOT01","EX","CDISC011","DEV0011",60,"ZANOMALINE",81,"mg","INJECTION","QD","SUBCUTANEOUS","SDS580-983","TREATMENT","2013-02-04","2013-02-04",60,60],
["CDISCPILOT01","EX","CDISC011","DEV0011",61,"ZANOMALINE",81,"mg","INJECTION","QD","SUBCUTANEOUS","SDS580-983","TREATMENT","2013-02-05","2013-02-05",61,61],
["CDISCPILOT01","EX","CDISC011","DEV0011",62,"ZANOMALINE",81,"mg","INJECTION","QD","SUBCUTANEOUS","SDS580-983","TREATMENT","2013-02-06","2013-02-06",62,62],
["CDISCPILOT01","EX","CDISC011","DEV0011",63,"ZANOMALINE",81,"mg","INJECTION","QD","SUBCUTANEOUS","SDS580-983","TREATMENT","2013-02-07","2013-02-07",63,63],
["CDISCPILOT01","EX","CDISC011","DEV0011",64,"ZANOMALINE",81,"mg","INJECTION","QD","SUBCUTANEOUS","SDS580-983","TREATMENT","2013-02-08","2013-02-08",64,64],
["CDISCPILOT01","EX","CDISC011","DEV0011",65,"ZANOMALINE",81,"mg","INJECTION","QD","SUBCUTANEOUS","SDS580-983","TREATMENT","2013-02-09","2013-02-09",65,65],
["CDISCPILOT01","EX","CDISC011","DEV0011",66,"ZANOMALINE",81,"mg","INJECTION","QD","SUBCUTANEOUS","SDS580-983","TREATMENT","2013-02-10","2013-02-10",66,66],
["CDISCPILOT01","EX","CDISC011","DEV0011",67,"ZANOMALINE",81,"mg","INJECTION","QD","SUBCUTANEOUS","SDS580-983","TREATMENT","2013-02-11","2013-02-11",67,67],
["CDISCPILOT01","EX","CDISC011","DEV0011",68,"ZANOMALINE",81,"mg","INJECTION","QD","SUBCUTANEOUS","SDS580-983","TREATMENT","2013-02-12","2013-02-12",68,68],
["CDISCPILOT01","EX","CDISC011","DEV0011",69,"ZANOMALINE",81,"mg","INJECTION","QD","SUBCUTANEOUS","SDS580-983","TREATMENT","2013-02-13","2013-02-13",69,69],
["CDISCPILOT01","EX","CDISC011","DEV0011",70,"ZANOMALINE",81,"mg","INJECTION","QD","SUBCUTANEOUS","SDS580-983","TREATMENT","2013-02-14","2013-02-14",70,70],
["CDISCPILOT01","EX","CDISC011","DEV0011",71,"ZANOMALINE",81,"mg","INJECTION","QD","SUBCUTANEOUS","SDS580-983","TREATMENT","2013-02-15","2013-02-15",71,71],
["CDISCPILOT01","EX","CDISC011","DEV0011",72,"ZANOMALINE",81,"mg","INJECTION","QD","SUBCUTANEOUS","SDS580-983","TREATMENT","2013-02-16","2013-02-16",72,72],
["CDISCPILOT01","EX","CDISC011","DEV0011",73,"ZANOMALINE",81,"mg","INJECTION","QD","SUBCUTANEOUS","SDS580-983","TREATMENT","2013-02-17","2013-02-17",73,73],
["CDISCPILOT01","EX","CDISC011","DEV0011",74,"ZANOMALINE",81,"mg","INJECTION","QD","SUBCUTANEOUS","SDS580-983","TREATMENT","2013-02-18","2013-02-18",74,74],
["CDISCPILOT01","EX","CDISC011","DEV0011",75,"ZANOMALINE",81,"mg","INJECTION","QD","SUBCUTANEOUS","SDS580-983","TREATMENT","2013-02-19","2013-02-19",75,75],
["CDISCPILOT01","EX","CDISC011","DEV0011",76,"ZANOMALINE",81,"mg","INJECTION","QD","SUBCUTANEOUS","SDS580-983","TREATMENT","2013-02-20","2013-02-20",76,76],
["CDISCPILOT01","EX","CDISC011","DEV0011",77,"ZANOMALINE",81,"mg","INJECTION","QD","SUBCUTANEOUS","SDS580-983","TREATMENT","2013-02-21","2013-02-21",77,77],
["CDISCPILOT01","EX","CDISC011","DEV0011",78,"ZANOMALINE",81,"mg","INJECTION","QD","SUBCUTANEOUS","SDS580-983","TREATMENT","2013-02-22","2013-02-22",78,78],
["CDISCPILOT01","EX","CDISC011","DEV0011",79,"ZANOMALINE",81,"mg","INJECTION","QD","SUBCUTANEOUS","SDS580-983","TREATMENT","2013-02-23","2013-02-23",79,79],
["CDISCPILOT01","EX","CDISC011","DEV0011",80,"ZANOMALINE",81,"mg","INJECTION","QD","SUBCUTANEOUS","SDS580-983","TREATMENT","2013-02-24","2013-02-24",80,80],
["CDISCPILOT01","EX","CDISC011","DEV0011",81,"ZANOMALINE",81,"mg","INJECTION","QD","SUBCUTANEOUS","SDS580-983","TREATMENT","2013-02-25","2013-02-25",81,81],
["CDISCPILOT01","EX","CDISC011","DEV0011",82,"ZANOMALINE",81,"mg","INJECTION","QD","SUBCUTANEOUS","SDS580-983","TREATMENT","2013-02-26","2013-02-26",82,82],
["CDISCPILOT01","EX","CDISC011","DEV0011",83,"ZANOMALINE",81,"mg","INJECTION","QD","SUBCUTANEOUS","SDS580-983","TREATMENT","2013-02-27","2013-02-27",83,83],
["CDISCPILOT01","EX","CDISC011","DEV0011",84,"ZANOMALINE",81,"mg","INJECTION","QD","SUBCUTANEOUS","SDS580-983","TREATMENT","2013-02-28","2013-02-28",84,84],
["CDISCPILOT01","EX","CDISC011","DEV0011",85,"ZANOMALINE",81,"mg","INJECTION","QD","SUBCUTANEOUS","SDS580-983","TREATMENT","2013-03-01","2013-03-01",85,85],
["CDISCPILOT01","EX","CDISC011","DEV0011",86,"ZANOMALINE",81,"mg","INJECTION","QD","SUBCUTANEOUS","SDS580-983","TREATMENT","2013-03-02","2013-03-02",86,86],
["CDISCPILOT01","EX","CDISC011","DEV0011",87,"ZANOMALINE",81,"mg","INJECTION","QD","SUBCUTANEOUS","SDS580-983","TREATMENT","2013-03-03","2013-03-03",87,87],
["CDISCPILOT01","EX","CDISC011","DEV0011",88,"ZANOMALINE",81,"mg","INJECTION","QD","SUBCUTANEOUS","SDS580-983","TREATMENT","2013-03-04","2013-03-04",88,88],
["CDISCPILOT01","EX","CDISC011","DEV0011",89,"ZANOMALINE",81,"mg","INJECTION","QD","SUBCUTANEOUS","SDS580-983","TREATMENT","2013-03-05","2013-03-05",89,89],
["CDISCPILOT01","EX","CDISC011","DEV0011",90,"ZANOMALINE",81,"mg","INJECTION","QD","SUBCUTANEOUS","SDS580-983","TREATMENT","2013-03-06","2013-03-06",90,90],
["CDISCPILOT01","EX","CDISC011","DEV0011",91,"ZANOMALINE",81,"mg","INJECTION","QD","SUBCUTANEOUS","SDS580-983","TREATMENT","2013-03-07","2013-03-07",91,91],
["CDISCPILOT01","EX","CDISC011","DEV0011",92,"ZANOMALINE",81,"mg","INJECTION","QD","SUBCUTANEOUS","SDS580-983","TREATMENT","2013-03-08","2013-03-08",92,92],
["CDISCPILOT01","EX","CDISC011","DEV0011",93,"ZANOMALINE",81,"mg","INJECTION","QD","SUBCUTANEOUS","SDS580-983","TREATMENT","2013-03-09","2013-03-09",93,93],
["CDISCPILOT01","EX","CDISC011","DEV0011",94,"ZANOMALINE",81,"mg","INJECTION","QD","SUBCUTANEOUS","SDS580-983","TREATMENT","2013-03-10","2013-03-10",94,94],
["CDISCPILOT01","EX","CDISC011","DEV0011",95,"ZANOMALINE",81,"mg","INJECTION","QD","SUBCUTANEOUS","SDS580-983","TREATMENT","2013-03-11","2013-03-11",95,95],
["CDISCPILOT01","EX","CDISC011","DEV0011",96,"ZANOMALINE",81,"mg","INJECTION","QD","SUBCUTANEOUS","SDS580-983","TREATMENT","2013-03-12","2013-03-12",96,96],
["CDISCPILOT01","EX","CDISC011","DEV0011",97,"ZANOMALINE",81,"mg","INJECTION","QD","SUBCUTANEOUS","SDS580-983","TREATMENT","2013-03-13","2013-03-13",97,97],
["CDISCPILOT01","EX","CDISC011","DEV0011",98,"ZANOMALINE",81,"mg","INJECTION","QD","SUBCUTANEOUS","SDS580-983","TREATMENT","2013-03-14","2013-03-14",98,98],
["CDISCPILOT01","EX","CDISC011","DEV0011",99,"ZANOMALINE",81,"mg","INJECTION","QD","SUBCUTANEOUS","SDS580-983","TREATMENT","2013-03-15","2013-03-15",99,99],
["CDISCPILOT01","EX","CDISC011","DEV0011",100,"ZANOMALINE",81,"mg","INJECTION","QD","SUBCUTANEOUS","SDS580-983","TREATMENT","2013-03-16","2013-03-16",100,100],
["CDISCPILOT01","EX","CDISC011","DEV0011",101,"ZANOMALINE",81,"mg","INJECTION","QD","SUBCUTANEOUS","SDS580-983","TREATMENT","2013-03-17","2013-03-17",101,101],
["CDISCPILOT01","EX","CDISC011","DEV0011",102,"ZANOMALINE",81,"mg","INJECTION","QD","SUBCUTANEOUS","SDS580-983","TREATMENT","2013-03-18","2013-03-18",102,102],
["CDISCPILOT01","EX","CDISC011","DEV0011",103,"ZANOMALINE",81,"mg","INJECTION","QD","SUBCUTANEOUS","SDS580-983","TREATMENT","2013-03-19","2013-03-19",103,103],
["CDISCPILOT01","EX","CDISC011","DEV0011",104,"ZANOMALINE",81,"mg","INJECTION","QD","SUBCUTANEOUS","SDS580-983","TREATMENT","2013-03-20","2013-03-20",104,104],
["CDISCPILOT01","EX","CDISC011","DEV0011",105,"ZANOMALINE",81,"mg","INJECTION","QD","SUBCUTANEOUS","SDS580-983","TREATMENT","2013-03-21","2013-03-21",105,105],
["CDISCPILOT01","EX","CDISC011","DEV0011",106,"ZANOMALINE",81,"mg","INJECTION","QD","SUBCUTANEOUS","SDS580-983","TREATMENT","2013-03-22","2013-03-22",106,106],
["CDISCPILOT01","EX","CDISC011","DEV0011",107,"ZANOMALINE",81,"mg","INJECTION","QD","SUBCUTANEOUS","SDS580-983","TREATMENT","2013-03-23","2013-03-23",107,107],
["CDISCPILOT01","EX","CDISC011","DEV0011",108,"ZANOMALINE",81,"mg","INJECTION","QD","SUBCUTANEOUS","SDS580-983","TREATMENT","2013-03-24","2013-03-24",108,108],
["CDISCPILOT01","EX","CDISC011","DEV0011",109,"ZANOMALINE",81,"mg","INJECTION","QD","SUBCUTANEOUS","SDS580-983","TREATMENT","2013-03-25","2013-03-25",109,109],
["CDISCPILOT01","EX","CDISC011","DEV0011",110,"ZANOMALINE",81,"mg","INJECTION","QD","SUBCUTANEOUS","SDS580-983","TREATMENT","2013-03-26","2013-03-26",110,110],
["CDISCPILOT01","EX","CDISC011","DEV0011",111,"ZANOMALINE",81,"mg","INJECTION","QD","SUBCUTANEOUS","SDS580-983","TREATMENT","2013-03-27","2013-03-27",111,111],
["CDISCPILOT01","EX","CDISC011","DEV0011",112,"ZANOMALINE",81,"mg","INJECTION","QD","SUBCUTANEOUS","SDS580-983","TREATMENT","2013-03-28","2013-03-28",112,112],
["CDISCPILOT01","EX","CDISC011","DEV0011",113,"ZANOMALINE",81,"mg","INJECTION","QD","SUBCUTANEOUS","SDS580-983","TREATMENT","2013-03-29","2013-03-29",113,113],
["CDISCPILOT01","EX","CDISC011","DEV0011",114,"ZANOMALINE",81,"mg","INJECTION","QD","SUBCUTANEOUS","SDS580-983","TREATMENT","2013-03-30","2013-03-30",114,114],
["CDISCPILOT01","EX","CDISC011","DEV0011",115,"ZANOMALINE",81,"mg","INJECTION","QD","SUBCUTANEOUS","SDS580-983","TREATMENT","2013-03-31","2013-03-31",115,115],
["CDISCPILOT01","EX","CDISC011","DEV0011",116,"ZANOMALINE",81,"mg","INJECTION","QD","SUBCUTANEOUS","SDS580-983","TREATMENT","2013-04-01","2013-04-01",116,116],
["CDISCPILOT01","EX","CDISC011","DEV0011",117,"ZANOMALINE",81,"mg","INJECTION","QD","SUBCUTANEOUS","SDS580-983","TREATMENT","2013-04-02","2013-04-02",117,117],
["CDISCPILOT01","EX","CDISC011","DEV0011",118,"ZANOMALINE",81,"mg","INJECTION","QD","SUBCUTANEOUS","SDS580-983","TREATMENT","2013-04-03","2013-04-03",118,118],
["CDISCPILOT01","EX","CDISC011","DEV0011",119,"ZANOMALINE",81,"mg","INJECTION","QD","SUBCUTANEOUS","SDS580-983","TREATMENT","2013-04-04","2013-04-04",119,119],
["CDISCPILOT01","EX","CDISC011","DEV0011",120,"ZANOMALINE",81,"mg","INJECTION","QD","SUBCUTANEOUS","SDS580-983","TREATMENT","2013-04-05","2013-04-05",120,120],
["CDISCPILOT01","EX","CDISC011","DEV0011",121,"ZANOMALINE",81,"mg","INJECTION","QD","SUBCUTANEOUS","SDS580-983","TREATMENT","2013-04-06","2013-04-06",121,121],
["CDISCPILOT01","EX","CDISC011","DEV0011",122,"ZANOMALINE",81,"mg","INJECTION","QD","SUBCUTANEOUS","SDS580-983","TREATMENT","2013-04-07","2013-04-07",122,122],
["CDISCPILOT01","EX","CDISC011","DEV0011",123,"ZANOMALINE",81,"mg","INJECTION","QD","SUBCUTANEOUS","SDS580-983","TREATMENT","2013-04-08","2013-04-08",123,123],
["CDISCPILOT01","EX","CDISC011","DEV0011",124,"ZANOMALINE",81,"mg","INJECTION","QD","SUBCUTANEOUS","SDS580-983","TREATMENT","2013-04-09","2013-04-09",124,124],
["CDISCPILOT01","EX","CDISC011","DEV0011",125,"ZANOMALINE",81,"mg","INJECTION","QD","SUBCUTANEOUS","SDS580-983","TREATMENT","2013-04-10","2013-04-10",125,125],
["CDISCPILOT01","EX","CDISC011","DEV0011",126,"ZANOMALINE",81,"mg","INJECTION","QD","SUBCUTANEOUS","SDS580-983","TREATMENT","2013-04-11","2013-04-11",126,126],
["CDISCPILOT01","EX","CDISC011","DEV0011",127,"ZANOMALINE",81,"mg","INJECTION","QD","SUBCUTANEOUS","SDS580-983","TREATMENT","2013-04-12","2013-04-12",127,127],
["CDISCPILOT01","EX","CDISC011","DEV0011",128,"ZANOMALINE",81,"mg","INJECTION","QD","SUBCUTANEOUS","SDS580-983","TREATMENT","2013-04-13","2013-04-13",128,128],
["CDISCPILOT01","EX","CDISC011","DEV0011",129,"ZANOMALINE",81,"mg","INJECTION","QD","SUBCUTANEOUS","SDS580-983","TREATMENT","2013-04-14","2013-04-14",129,129],
["CDISCPILOT01","EX","CDISC011","DEV0011",130,"ZANOMALINE",81,"mg","INJECTION","QD","SUBCUTANEOUS","SDS580-983","TREATMENT","2013-04-15","2013-04-15",130,130],
["CDISCPILOT01","EX","CDISC011","DEV0011",131,"ZANOMALINE",81,"mg","INJECTION","QD","SUBCUTANEOUS","SDS580-983","TREATMENT","2013-04-16","2013-04-16",131,131],
["CDISCPILOT01","EX","CDISC011","DEV0011",132,"ZANOMALINE",81,"mg","INJECTION","QD","SUBCUTANEOUS","SDS580-983","TREATMENT","2013-04-17","2013-04-17",132,132],
["CDISCPILOT01","EX","CDISC011","DEV0011",133,"ZANOMALINE",81,"mg","INJECTION","QD","SUBCUTANEOUS","SDS580-983","TREATMENT","2013-04-18","2013-04-18",133,133],
["CDISCPILOT01","EX","CDISC011","DEV0011",134,"ZANOMALINE",81,"mg","INJECTION","QD","SUBCUTANEOUS","SDS580-983","TREATMENT","2013-04-19","2013-04-19",134,134],
["CDISCPILOT01","EX","CDISC011","DEV0011",135,"ZANOMALINE",81,"mg","INJECTION","QD","SUBCUTANEOUS","SDS580-983","TREATMENT","2013-04-20","2013-04-20",135,135],
["CDISCPILOT01","EX","CDISC011","DEV0011",136,"ZANOMALINE",81,"mg","INJECTION","QD","SUBCUTANEOUS","SDS580-983","TREATMENT","2013-04-21","2013-04-21",136,136],
["CDISCPILOT01","EX","CDISC011","DEV0011",137,"ZANOMALINE",81,"mg","INJECTION","QD","SUBCUTANEOUS","SDS580-983","TREATMENT","2013-04-22","2013-04-22",137,137],
["CDISCPILOT01","EX","CDISC011","DEV0011",138,"ZANOMALINE",81,"mg","INJECTION","QD","SUBCUTANEOUS","SDS580-983","TREATMENT","2013-04-23","2013-04-23",138,138],
["CDISCPILOT01","EX","CDISC011","DEV0011",139,"ZANOMALINE",81,"mg","INJECTION","QD","SUBCUTANEOUS","SDS580-983","TREATMENT","2013-04-24","2013-04-24",139,139],
["CDISCPILOT01","EX","CDISC011","DEV0011",140,"ZANOMALINE",81,"mg","INJECTION","QD","SUBCUTANEOUS","SDS580-983","TREATMENT","2013-04-25","2013-04-25",140,140],
["CDISCPILOT01","EX","CDISC011","DEV0011",141,"ZANOMALINE",81,"mg","INJECTION","QD","SUBCUTANEOUS","SDS580-983","TREATMENT","2013-04-26","2013-04-26",141,141],
["CDISCPILOT01","EX","CDISC011","DEV0011",142,"ZANOMALINE",81,"mg","INJECTION","QD","SUBCUTANEOUS","SDS580-983","TREATMENT","2013-04-27","2013-04-27",142,142],
["CDISCPILOT01","EX","CDISC011","DEV0011",143,"ZANOMALINE",81,"mg","INJECTION","QD","SUBCUTANEOUS","SDS580-983","TREATMENT","2013-04-28","2013-04-28",143,143],
["CDISCPILOT01","EX","CDISC011","DEV0011",144,"ZANOMALINE",81,"mg","INJECTION","QD","SUBCUTANEOUS","SDS580-983","TREATMENT","2013-04-29","2013-04-29",144,144],
["CDISCPILOT01","EX","CDISC011","DEV0011",145,"ZANOMALINE",81,"mg","INJECTION","QD","SUBCUTANEOUS","SDS580-983","TREATMENT","2013-04-30","2013-04-30",145,145],
["CDISCPILOT01","EX","CDISC011","DEV0011",146,"ZANOMALINE",81,"mg","INJECTION","QD","SUBCUTANEOUS","SDS580-983","TREATMENT","2013-05-01","2013-05-01",146,146],
["CDISCPILOT01","EX","CDISC011","DEV0011",147,"ZANOMALINE",81,"mg","INJECTION","QD","SUBCUTANEOUS","SDS580-983","TREATMENT","2013-05-02","2013-05-02",147,147],
["CDISCPILOT01","EX","CDISC011","DEV0011",148,"ZANOMALINE",81,"mg","INJECTION","QD","SUBCUTANEOUS","SDS580-983","TREATMENT","2013-05-03","2013-05-03",148,148],
["CDISCPILOT01","EX","CDISC011","DEV0011",149,"ZANOMALINE",81,"mg","INJECTION","QD","SUBCUTANEOUS","SDS580-983","TREATMENT","2013-05-04","2013-05-04",149,149],
["CDISCPILOT01","EX","CDISC011","DEV0011",150,"ZANOMALINE",81,"mg","INJECTION","QD","SUBCUTANEOUS","SDS580-983","TREATMENT","2013-05-05","2013-05-05",150,150],
["CDISCPILOT01","EX","CDISC011","DEV0011",151,"ZANOMALINE",81,"mg","INJECTION","QD","SUBCUTANEOUS","SDS580-983","TREATMENT","2013-05-06","2013-05-06",151,151],
["CDISCPILOT01","EX","CDISC011","DEV0011",152,"ZANOMALINE",81,"mg","INJECTION","QD","SUBCUTANEOUS","SDS580-983","TREATMENT","2013-05-07","2013-05-07",152,152],
["CDISCPILOT01","EX","CDISC011","DEV0011",153,"ZANOMALINE",81,"mg","INJECTION","QD","SUBCUTANEOUS","SDS580-983","TREATMENT","2013-05-08","2013-05-08",153,153],
["CDISCPILOT01","EX","CDISC011","DEV0011",154,"ZANOMALINE",81,"mg","INJECTION","QD","SUBCUTANEOUS","SDS580-983","TREATMENT","2013-05-09","2013-05-09",154,154],
["CDISCPILOT01","EX","CDISC011","DEV0011",155,"ZANOMALINE",81,"mg","INJECTION","QD","SUBCUTANEOUS","SDS580-983","TREATMENT","2013-05-10","2013-05-10",155,155],
["CDISCPILOT01","EX","CDISC011","DEV0011",156,"ZANOMALINE",81,"mg","INJECTION","QD","SUBCUTANEOUS","SDS580-983","TREATMENT","2013-05-11","2013-05-11",156,156],
["CDISCPILOT01","EX","CDISC011","DEV0011",157,"ZANOMALINE",81,"mg","INJECTION","QD","SUBCUTANEOUS","SDS580-983","TREATMENT","2013-05-12","2013-05-12",157,157],
["CDISCPILOT01","EX","CDISC011","DEV0011",158,"ZANOMALINE",81,"mg","INJECTION","QD","SUBCUTANEOUS","SDS580-983","TREATMENT","2013-05-13","2013-05-13",158,158],
["CDISCPILOT01","EX","CDISC011","DEV0011",159,"ZANOMALINE",81,"mg","INJECTION","QD","SUBCUTANEOUS","SDS580-983","TREATMENT","2013-05-14","2013-05-14",159,159],
["CDISCPILOT01","EX","CDISC011","DEV0011",160,"ZANOMALINE",81,"mg","INJECTION","QD","SUBCUTANEOUS","SDS580-983","TREATMENT","2013-05-15","2013-05-15",160,160],
["CDISCPILOT01","EX","CDISC011","DEV0011",161,"ZANOMALINE",81,"mg","INJECTION","QD","SUBCUTANEOUS","SDS580-983","TREATMENT","2013-05-16","2013-05-16",161,161],
["CDISCPILOT01","EX","CDISC011","DEV0011",162,"ZANOMALINE",81,"mg","INJECTION","QD","SUBCUTANEOUS","SDS580-983","TREATMENT","2013-05-17","2013-05-17",162,162],
["CDISCPILOT01","EX","CDISC011","DEV0011",163,"ZANOMALINE",81,"mg","INJECTION","QD","SUBCUTANEOUS","SDS580-983","TREATMENT","2013-05-18","2013-05-18",163,163],
["CDISCPILOT01","EX","CDISC011","DEV0011",164,"ZANOMALINE",81,"mg","INJECTION","QD","SUBCUTANEOUS","SDS580-983","TREATMENT","2013-05-19","2013-05-19",164,164],
["CDISCPILOT01","EX","CDISC011","DEV0011",165,"ZANOMALINE",81,"mg","INJECTION","QD","SUBCUTANEOUS","SDS580-983","TREATMENT","2013-05-20","2013-05-20",165,165],
["CDISCPILOT01","EX","CDISC011","DEV0011",166,"ZANOMALINE",81,"mg","INJECTION","QD","SUBCUTANEOUS","SDS580-983","TREATMENT","2013-05-21","2013-05-21",166,166],
["CDISCPILOT01","EX","CDISC011","DEV0011",167,"ZANOMALINE",81,"mg","INJECTION","QD","SUBCUTANEOUS","SDS580-983","TREATMENT","2013-05-22","2013-05-22",167,167],
["CDISCPILOT01","EX","CDISC011","DEV0011",168,"ZANOMALINE",54,"mg","INJECTION","QD","SUBCUTANEOUS","SDS580-848","TREATMENT","2013-05-23","2013-05-23",168,168],
["CDISCPILOT01","EX","CDISC011","DEV0011",169,"ZANOMALINE",54,"mg","INJECTION","QD","SUBCUTANEOUS","SDS580-848","TREATMENT","2013-05-24","2013-05-24",169,169],
["CDISCPILOT01","EX","CDISC011","DEV0011",170,"ZANOMALINE",54,"mg","INJECTION","QD","SUBCUTANEOUS","SDS580-848","TREATMENT","2013-05-25","2013-05-25",170,170],
["CDISCPILOT01","EX","CDISC011","DEV0011",171,"ZANOMALINE",54,"mg","INJECTION","QD","SUBCUTANEOUS","SDS580-848","TREATMENT","2013-05-26","2013-05-26",171,171],
["CDISCPILOT01","EX","CDISC011","DEV0011",172,"ZANOMALINE",54,"mg","INJECTION","QD","SUBCUTANEOUS","SDS580-848","TREATMENT","2013-05-27","2013-05-27",172,172],
["CDISCPILOT01","EX","CDISC011","DEV0011",173,"ZANOMALINE",54,"mg","INJECTION","QD","SUBCUTANEOUS","SDS580-848","TREATMENT","2013-05-28","2013-05-28",173,173],
["CDISCPILOT01","EX","CDISC011","DEV0011",174,"ZANOMALINE",54,"mg","INJECTION","QD","SUBCUTANEOUS","SDS580-848","TREATMENT","2013-05-29","2013-05-29",174,174],
["CDISCPILOT01","EX","CDISC011","DEV0011",175,"ZANOMALINE",54,"mg","INJECTION","QD","SUBCUTANEOUS","SDS580-848","TREATMENT","2013-05-30","2013-05-30",175,175],
["CDISCPILOT01","EX","CDISC011","DEV0011",176,"ZANOMALINE",54,"mg","INJECTION","QD","SUBCUTANEOUS","SDS580-848","TREATMENT","2013-05-31","2013-05-31",176,176],
["CDISCPILOT01","EX","CDISC011","DEV0011",177,"ZANOMALINE",54,"mg","INJECTION","QD","SUBCUTANEOUS","SDS580-848","TREATMENT","2013-06-01","2013-06-01",177,177],
["CDISCPILOT01","EX","CDISC011","DEV0011",178,"ZANOMALINE",54,"mg","INJECTION","QD","SUBCUTANEOUS","SDS580-848","TREATMENT","2013-06-02","2013-06-02",178,178],
["CDISCPILOT01","EX","CDISC011","DEV0011",179,"ZANOMALINE",54,"mg","INJECTION","QD","SUBCUTANEOUS","SDS580-848","TREATMENT","2013-06-03","2013-06-03",179,179],
["CDISCPILOT01","EX","CDISC011","DEV0011",180,"ZANOMALINE",54,"mg","INJECTION","QD","SUBCUTANEOUS","SDS580-848","TREATMENT","2013-06-04","2013-06-04",180,180],
["CDISCPILOT01","EX","CDISC011","DEV0011",181,"ZANOMALINE",54,"mg","INJECTION","QD","SUBCUTANEOUS","SDS580-848","TREATMENT","2013-06-05","2013-06-05",181,181],
["CDISCPILOT01","EX","CDISC012","DEV0012",1,"PLACEBO",0,"mg","INJECTION","QD","SUBCUTANEOUS","SDS580-926","TREATMENT","2013-09-03","2013-09-03",1,1],
["CDISCPILOT01","EX","CDISC012","DEV0012",2,"PLACEBO",0,"mg","INJECTION","QD","SUBCUTANEOUS","SDS580-926","TREATMENT","2013-09-04","2013-09-04",2,2],
["CDISCPILOT01","EX","CDISC012","DEV0012",3,"PLACEBO",0,"mg","INJECTION","QD","SUBCUTANEOUS","SDS580-926","TREATMENT","2013-09-05","2013-09-05",3,3],
["CDISCPILOT01","EX","CDISC012","DEV0012",4,"PLACEBO",0,"mg","INJECTION","QD","SUBCUTANEOUS","SDS580-926","TREATMENT","2013-09-06","2013-09-06",4,4],
["CDISCPILOT01","EX","CDISC012","DEV0012",5,"PLACEBO",0,"mg","INJECTION","QD","SUBCUTANEOUS","SDS580-926","TREATMENT","2013-09-07","2013-09-07",5,5],
["CDISCPILOT01","EX","CDISC012","DEV0012",6,"PLACEBO",0,"mg","INJECTION","QD","SUBCUTANEOUS","SDS580-926","TREATMENT","2013-09-08","2013-09-08",6,6],
["CDISCPILOT01","EX","CDISC012","DEV0012",7,"PLACEBO",0,"mg","INJECTION","QD","SUBCUTANEOUS","SDS580-926","TREATMENT","2013-09-09","2013-09-09",7,7],
["CDISCPILOT01","EX","CDISC012","DEV0012",8,"PLACEBO",0,"mg","INJECTION","QD","SUBCUTANEOUS","SDS580-926","TREATMENT","2013-09-10","2013-09-10",8,8],
["CDISCPILOT01","EX","CDISC012","DEV0012",9,"PLACEBO",0,"mg","INJECTION","QD","SUBCUTANEOUS","SDS580-926","TREATMENT","2013-09-11","2013-09-11",9,9],
["CDISCPILOT01","EX","CDISC012","DEV0012",10,"PLACEBO",0,"mg","INJECTION","QD","SUBCUTANEOUS","SDS580-926","TREATMENT","2013-09-12","2013-09-12",10,10],
["CDISCPILOT01","EX","CDISC012","DEV0012",11,"PLACEBO",0,"mg","INJECTION","QD","SUBCUTANEOUS","SDS580-926","TREATMENT","2013-09-13","2013-09-13",11,11],
["CDISCPILOT01","EX","CDISC012","DEV0012",12,"PLACEBO",0,"mg","INJECTION","QD","SUBCUTANEOUS","SDS580-926","TREATMENT","2013-09-14","2013-09-14",12,12],
["CDISCPILOT01","EX","CDISC012","DEV0012",13,"PLACEBO",0,"mg","INJECTION","QD","SUBCUTANEOUS","SDS580-926","TREATMENT","2013-09-15","2013-09-15",13,13],
["CDISCPILOT01","EX","CDISC012","DEV0012",14,"PLACEBO",0,"mg","INJECTION","QD","SUBCUTANEOUS","SDS580-926","TREATMENT","2013-09-16","2013-09-16",14,14],
["CDISCPILOT01","EX","CDISC012","DEV0012",15,"PLACEBO",0,"mg","INJECTION","QD","SUBCUTANEOUS","SDS580-926","TREATMENT","2013-09-17","2013-09-17",15,15],
["CDISCPILOT01","EX","CDISC012","DEV0012",16,"PLACEBO",0,"mg","INJECTION","QD","SUBCUTANEOUS","SDS580-926","TREATMENT","2013-09-18","2013-09-18",16,16],
["CDISCPILOT01","EX","CDISC012","DEV0012",17,"PLACEBO",0,"mg","INJECTION","QD","SUBCUTANEOUS","SDS580-926","TREATMENT","2013-09-19","2013-09-19",17,17],
["CDISCPILOT01","EX","CDISC012","DEV0012",18,"PLACEBO",0,"mg","INJECTION","QD","SUBCUTANEOUS","SDS580-926","TREATMENT","2013-09-20","2013-09-20",18,18],
["CDISCPILOT01","EX","CDISC012","DEV0012",19,"PLACEBO",0,"mg","INJECTION","QD","SUBCUTANEOUS","SDS580-926","TREATMENT","2013-09-21","2013-09-21",19,19],
["CDISCPILOT01","EX","CDISC012","DEV0012",20,"PLACEBO",0,"mg","INJECTION","QD","SUBCUTANEOUS","SDS580-926","TREATMENT","2013-09-22","2013-09-22",20,20],
["CDISCPILOT01","EX","CDISC012","DEV0012",21,"PLACEBO",0,"mg","INJECTION","QD","SUBCUTANEOUS","SDS580-926","TREATMENT","2013-09-23","2013-09-23",21,21],
["CDISCPILOT01","EX","CDISC012","DEV0012",22,"PLACEBO",0,"mg","INJECTION","QD","SUBCUTANEOUS","SDS580-926","TREATMENT","2013-09-24","2013-09-24",22,22],
["CDISCPILOT01","EX","CDISC012","DEV0012",23,"PLACEBO",0,"mg","INJECTION","QD","SUBCUTANEOUS","SDS580-926","TREATMENT","2013-09-25","2013-09-25",23,23],
["CDISCPILOT01","EX","CDISC012","DEV0012",24,"PLACEBO",0,"mg","INJECTION","QD","SUBCUTANEOUS","SDS580-926","TREATMENT","2013-09-26","2013-09-26",24,24],
["CDISCPILOT01","EX","CDISC012","DEV0012",25,"PLACEBO",0,"mg","INJECTION","QD","SUBCUTANEOUS","SDS580-926","TREATMENT","2013-09-27","2013-09-27",25,25],
["CDISCPILOT01","EX","CDISC012","DEV0012",26,"PLACEBO",0,"mg","INJECTION","QD","SUBCUTANEOUS","SDS580-926","TREATMENT","2013-09-28","2013-09-28",26,26],
["CDISCPILOT01","EX","CDISC012","DEV0012",27,"PLACEBO",0,"mg","INJECTION","QD","SUBCUTANEOUS","SDS580-926","TREATMENT","2013-09-29","2013-09-29",27,27],
["CDISCPILOT01","EX","CDISC012","DEV0012",28,"PLACEBO",0,"mg","INJECTION","QD","SUBCUTANEOUS","SDS580-926","TREATMENT","2013-09-30","2013-09-30",28,28],
["CDISCPILOT01","EX","CDISC012","DEV0012",29,"PLACEBO",0,"mg","INJECTION","QD","SUBCUTANEOUS","SDS580-926","TREATMENT","2013-10-01","2013-10-01",29,29],
["CDISCPILOT01","EX","CDISC012","DEV0012",30,"PLACEBO",0,"mg","INJECTION","QD","SUBCUTANEOUS","SDS580-926","TREATMENT","2013-10-02","2013-10-02",30,30],
["CDISCPILOT01","EX","CDISC012","DEV0012",31,"PLACEBO",0,"mg","INJECTION","QD","SUBCUTANEOUS","SDS580-926","TREATMENT","2013-10-03","2013-10-03",31,31],
["CDISCPILOT01","EX","CDISC012","DEV0012",32,"PLACEBO",0,"mg","INJECTION","QD","SUBCUTANEOUS","SDS580-926","TREATMENT","2013-10-04","2013-10-04",32,32],
["CDISCPILOT01","EX","CDISC012","DEV0012",33,"PLACEBO",0,"mg","INJECTION","QD","SUBCUTANEOUS","SDS580-926","TREATMENT","2013-10-05","2013-10-05",33,33],
["CDISCPILOT01","EX","CDISC012","DEV0012",34,"PLACEBO",0,"mg","INJECTION","QD","SUBCUTANEOUS","SDS580-926","TREATMENT","2013-10-06","2013-10-06",34,34],
["CDISCPILOT01","EX","CDISC012","DEV0012",35,"PLACEBO",0,"mg","INJECTION","QD","SUBCUTANEOUS","SDS580-926","TREATMENT","2013-10-07","2013-10-07",35,35],
["CDISCPILOT01","EX","CDISC012","DEV0012",36,"PLACEBO",0,"mg","INJECTION","QD","SUBCUTANEOUS","SDS580-926","TREATMENT","2013-10-08","2013-10-08",36,36],
["CDISCPILOT01","EX","CDISC012","DEV0012",37,"PLACEBO",0,"mg","INJECTION","QD","SUBCUTANEOUS","SDS580-926","TREATMENT","2013-10-09","2013-10-09",37,37],
["CDISCPILOT01","EX","CDISC012","DEV0012",38,"PLACEBO",0,"mg","INJECTION","QD","SUBCUTANEOUS","SDS580-926","TREATMENT","2013-10-10","2013-10-10",38,38],
["CDISCPILOT01","EX","CDISC012","DEV0012",39,"PLACEBO",0,"mg","INJECTION","QD","SUBCUTANEOUS","SDS580-926","TREATMENT","2013-10-11","2013-10-11",39,39],
["CDISCPILOT01","EX","CDISC012","DEV0012",40,"PLACEBO",0,"mg","INJECTION","QD","SUBCUTANEOUS","SDS580-926","TREATMENT","2013-10-12","2013-10-12",40,40],
["CDISCPILOT01","EX","CDISC012","DEV0012",41,"PLACEBO",0,"mg","INJECTION","QD","SUBCUTANEOUS","SDS580-926","TREATMENT","2013-10-13","2013-10-13",41,41],
["CDISCPILOT01","EX","CDISC012","DEV0012",42,"PLACEBO",0,"mg","INJECTION","QD","SUBCUTANEOUS","SDS580-926","TREATMENT","2013-10-14","2013-10-14",42,42],
["CDISCPILOT01","EX","CDISC012","DEV0012",43,"PLACEBO",0,"mg","INJECTION","QD","SUBCUTANEOUS","SDS580-926","TREATMENT","2013-10-15","2013-10-15",43,43],
["CDISCPILOT01","EX","CDISC012","DEV0012",44,"PLACEBO",0,"mg","INJECTION","QD","SUBCUTANEOUS","SDS580-926","TREATMENT","2013-10-16","2013-10-16",44,44],
["CDISCPILOT01","EX","CDISC012","DEV0012",45,"PLACEBO",0,"mg","INJECTION","QD","SUBCUTANEOUS","SDS580-926","TREATMENT","2013-10-17","2013-10-17",45,45],
["CDISCPILOT01","EX","CDISC012","DEV0012",46,"PLACEBO",0,"mg","INJECTION","QD","SUBCUTANEOUS","SDS580-926","TREATMENT","2013-10-18","2013-10-18",46,46],
["CDISCPILOT01","EX","CDISC012","DEV0012",47,"PLACEBO",0,"mg","INJECTION","QD","SUBCUTANEOUS","SDS580-926","TREATMENT","2013-10-19","2013-10-19",47,47],
["CDISCPILOT01","EX","CDISC012","DEV0012",48,"PLACEBO",0,"mg","INJECTION","QD","SUBCUTANEOUS","SDS580-926","TREATMENT","2013-10-20","2013-10-20",48,48],
["CDISCPILOT01","EX","CDISC012","DEV0012",49,"PLACEBO",0,"mg","INJECTION","QD","SUBCUTANEOUS","SDS580-926","TREATMENT","2013-10-21","2013-10-21",49,49],
["CDISCPILOT01","EX","CDISC012","DEV0012",50,"PLACEBO",0,"mg","INJECTION","QD","SUBCUTANEOUS","SDS580-926","TREATMENT","2013-10-22","2013-10-22",50,50],
["CDISCPILOT01","EX","CDISC012","DEV0012",51,"PLACEBO",0,"mg","INJECTION","QD","SUBCUTANEOUS","SDS580-926","TREATMENT","2013-10-23","2013-10-23",51,51],
["CDISCPILOT01","EX","CDISC012","DEV0012",52,"PLACEBO",0,"mg","INJECTION","QD","SUBCUTANEOUS","SDS580-926","TREATMENT","2013-10-24","2013-10-24",52,52],
["CDISCPILOT01","EX","CDISC012","DEV0012",53,"PLACEBO",0,"mg","INJECTION","QD","SUBCUTANEOUS","SDS580-926","TREATMENT","2013-10-25","2013-10-25",53,53],
["CDISCPILOT01","EX","CDISC012","DEV0012",54,"PLACEBO",0,"mg","INJECTION","QD","SUBCUTANEOUS","SDS580-926","TREATMENT","2013-10-26","2013-10-26",54,54],
["CDISCPILOT01","EX","CDISC012","DEV0012",55,"PLACEBO",0,"mg","INJECTION","QD","SUBCUTANEOUS","SDS580-926","TREATMENT","2013-10-27","2013-10-27",55,55],
["CDISCPILOT01","EX","CDISC012","DEV0012",56,"PLACEBO",0,"mg","INJECTION","QD","SUBCUTANEOUS","SDS580-926","TREATMENT","2013-10-28","2013-10-28",56,56],
["CDISCPILOT01","EX","CDISC012","DEV0012",57,"PLACEBO",0,"mg","INJECTION","QD","SUBCUTANEOUS","SDS580-926","TREATMENT","2013-10-29","2013-10-29",57,57],
["CDISCPILOT01","EX","CDISC012","DEV0012",58,"PLACEBO",0,"mg","INJECTION","QD","SUBCUTANEOUS","SDS580-926","TREATMENT","2013-10-30","2013-10-30",58,58],
["CDISCPILOT01","EX","CDISC012","DEV0012",59,"PLACEBO",0,"mg","INJECTION","QD","SUBCUTANEOUS","SDS580-926","TREATMENT","2013-10-31","2013-10-31",59,59],
["CDISCPILOT01","EX","CDISC012","DEV0012",60,"PLACEBO",0,"mg","INJECTION","QD","SUBCUTANEOUS","SDS580-926","TREATMENT","2013-11-01","2013-11-01",60,60],
["CDISCPILOT01","EX","CDISC012","DEV0012",61,"PLACEBO",0,"mg","INJECTION","QD","SUBCUTANEOUS","SDS580-926","TREATMENT","2013-11-02","2013-11-02",61,61],
["CDISCPILOT01","EX","CDISC012","DEV0012",62,"PLACEBO",0,"mg","INJECTION","QD","SUBCUTANEOUS","SDS580-926","TREATMENT","2013-11-03","2013-11-03",62,62],
["CDISCPILOT01","EX","CDISC012","DEV0012",63,"PLACEBO",0,"mg","INJECTION","QD","SUBCUTANEOUS","SDS580-926","TREATMENT","2013-11-04","2013-11-04",63,63],
["CDISCPILOT01","EX","CDISC012","DEV0012",64,"PLACEBO",0,"mg","INJECTION","QD","SUBCUTANEOUS","SDS580-926","TREATMENT","2013-11-05","2013-11-05",64,64],
["CDISCPILOT01","EX","CDISC012","DEV0012",65,"PLACEBO",0,"mg","INJECTION","QD","SUBCUTANEOUS","SDS580-926","TREATMENT","2013-11-06","2013-11-06",65,65],
["CDISCPILOT01","EX","CDISC012","DEV0012",66,"PLACEBO",0,"mg","INJECTION","QD","SUBCUTANEOUS","SDS580-926","TREATMENT","2013-11-07","2013-11-07",66,66],
["CDISCPILOT01","EX","CDISC012","DEV0012",67,"PLACEBO",0,"mg","INJECTION","QD","SUBCUTANEOUS","SDS580-926","TREATMENT","2013-11-08","2013-11-08",67,67],
["CDISCPILOT01","EX","CDISC012","DEV0012",68,"PLACEBO",0,"mg","INJECTION","QD","SUBCUTANEOUS","SDS580-926","TREATMENT","2013-11-09","2013-11-09",68,68],
["CDISCPILOT01","EX","CDISC012","DEV0012",69,"PLACEBO",0,"mg","INJECTION","QD","SUBCUTANEOUS","SDS580-926","TREATMENT","2013-11-10","2013-11-10",69,69],
["CDISCPILOT01","EX","CDISC012","DEV0012",70,"PLACEBO",0,"mg","INJECTION","QD","SUBCUTANEOUS","SDS580-926","TREATMENT","2013-11-11","2013-11-11",70,70],
["CDISCPILOT01","EX","CDISC012","DEV0012",71,"PLACEBO",0,"mg","INJECTION","QD","SUBCUTANEOUS","SDS580-926","TREATMENT","2013-11-12","2013-11-12",71,71],
["CDISCPILOT01","EX","CDISC012","DEV0012",72,"PLACEBO",0,"mg","INJECTION","QD","SUBCUTANEOUS","SDS580-926","TREATMENT","2013-11-13","2013-11-13",72,72],
["CDISCPILOT01","EX","CDISC012","DEV0012",73,"PLACEBO",0,"mg","INJECTION","QD","SUBCUTANEOUS","SDS580-926","TREATMENT","2013-11-14","2013-11-14",73,73],
["CDISCPILOT01","EX","CDISC012","DEV0012",74,"PLACEBO",0,"mg","INJECTION","QD","SUBCUTANEOUS","SDS580-926","TREATMENT","2013-11-15","2013-11-15",74,74],
["CDISCPILOT01","EX","CDISC012","DEV0012",75,"PLACEBO",0,"mg","INJECTION","QD","SUBCUTANEOUS","SDS580-926","TREATMENT","2013-11-16","2013-11-16",75,75],
["CDISCPILOT01","EX","CDISC012","DEV0012",76,"PLACEBO",0,"mg","INJECTION","QD","SUBCUTANEOUS","SDS580-926","TREATMENT","2013-11-17","2013-11-17",76,76],
["CDISCPILOT01","EX","CDISC012","DEV0012",77,"PLACEBO",0,"mg","INJECTION","QD","SUBCUTANEOUS","SDS580-926","TREATMENT","2013-11-18","2013-11-18",77,77],
["CDISCPILOT01","EX","CDISC012","DEV0012",78,"PLACEBO",0,"mg","INJECTION","QD","SUBCUTANEOUS","SDS580-926","TREATMENT","2013-11-19","2013-11-19",78,78],
["CDISCPILOT01","EX","CDISC012","DEV0012",79,"PLACEBO",0,"mg","INJECTION","QD","SUBCUTANEOUS","SDS580-926","TREATMENT","2013-11-20","2013-11-20",79,79],
["CDISCPILOT01","EX","CDISC012","DEV0012",80,"PLACEBO",0,"mg","INJECTION","QD","SUBCUTANEOUS","SDS580-926","TREATMENT","2013-11-21","2013-11-21",80,80],
["CDISCPILOT01","EX","CDISC012","DEV0012",81,"PLACEBO",0,"mg","INJECTION","QD","SUBCUTANEOUS","SDS580-926","TREATMENT","2013-11-22","2013-11-22",81,81],
["CDISCPILOT01","EX","CDISC012","DEV0012",82,"PLACEBO",0,"mg","INJECTION","QD","SUBCUTANEOUS","SDS580-926","TREATMENT","2013-11-23","2013-11-23",82,82],
["CDISCPILOT01","EX","CDISC012","DEV0012",83,"PLACEBO",0,"mg","INJECTION","QD","SUBCUTANEOUS","SDS580-926","TREATMENT","2013-11-24","2013-11-24",83,83],
["CDISCPILOT01","EX","CDISC012","DEV0012",84,"PLACEBO",0,"mg","INJECTION","QD","SUBCUTANEOUS","SDS580-926","TREATMENT","2013-11-25","2013-11-25",84,84],
["CDISCPILOT01","EX","CDISC012","DEV0012",85,"PLACEBO",0,"mg","INJECTION","QD","SUBCUTANEOUS","SDS580-926","TREATMENT","2013-11-26","2013-11-26",85,85],
["CDISCPILOT01","EX","CDISC012","DEV0012",86,"PLACEBO",0,"mg","INJECTION","QD","SUBCUTANEOUS","SDS580-926","TREATMENT","2013-11-27","2013-11-27",86,86],
["CDISCPILOT01","EX","CDISC012","DEV0012",87,"PLACEBO",0,"mg","INJECTION","QD","SUBCUTANEOUS","SDS580-926","TREATMENT","2013-11-28","2013-11-28",87,87],
["CDISCPILOT01","EX","CDISC012","DEV0012",88,"PLACEBO",0,"mg","INJECTION","QD","SUBCUTANEOUS","SDS580-926","TREATMENT","2013-11-29","2013-11-29",88,88],
["CDISCPILOT01","EX","CDISC012","DEV0012",89,"PLACEBO",0,"mg","INJECTION","QD","SUBCUTANEOUS","SDS580-926","TREATMENT","2013-11-30","2013-11-30",89,89],
["CDISCPILOT01","EX","CDISC012","DEV0012",90,"PLACEBO",0,"mg","INJECTION","QD","SUBCUTANEOUS","SDS580-926","TREATMENT","2013-12-01","2013-12-01",90,90],
["CDISCPILOT01","EX","CDISC012","DEV0012",91,"PLACEBO",0,"mg","INJECTION","QD","SUBCUTANEOUS","SDS580-926","TREATMENT","2013-12-02","2013-12-02",91,91],
["CDISCPILOT01","EX","CDISC012","DEV0012",92,"PLACEBO",0,"mg","INJECTION","QD","SUBCUTANEOUS","SDS580-926","TREATMENT","2013-12-03","2013-12-03",92,92],
["CDISCPILOT01","EX","CDISC012","DEV0012",93,"PLACEBO",0,"mg","INJECTION","QD","SUBCUTANEOUS","SDS580-926","TREATMENT","2013-12-04","2013-12-04",93,93],
["CDISCPILOT01","EX","CDISC012","DEV0012",94,"PLACEBO",0,"mg","INJECTION","QD","SUBCUTANEOUS","SDS580-926","TREATMENT","2013-12-05","2013-12-05",94,94],
["CDISCPILOT01","EX","CDISC012","DEV0012",95,"PLACEBO",0,"mg","INJECTION","QD","SUBCUTANEOUS","SDS580-926","TREATMENT","2013-12-06","2013-12-06",95,95],
["CDISCPILOT01","EX","CDISC012","DEV0012",96,"PLACEBO",0,"mg","INJECTION","QD","SUBCUTANEOUS","SDS580-926","TREATMENT","2013-12-07","2013-12-07",96,96],
["CDISCPILOT01","EX","CDISC012","DEV0012",97,"PLACEBO",0,"mg","INJECTION","QD","SUBCUTANEOUS","SDS580-926","TREATMENT","2013-12-08","2013-12-08",97,97],
["CDISCPILOT01","EX","CDISC012","DEV0012",98,"PLACEBO",0,"mg","INJECTION","QD","SUBCUTANEOUS","SDS580-926","TREATMENT","2013-12-09","2013-12-09",98,98],
["CDISCPILOT01","EX","CDISC012","DEV0012",99,"PLACEBO",0,"mg","INJECTION","QD","SUBCUTANEOUS","SDS580-926","TREATMENT","2013-12-10","2013-12-10",99,99],
["CDISCPILOT01","EX","CDISC012","DEV0012",100,"PLACEBO",0,"mg","INJECTION","QD","SUBCUTANEOUS","SDS580-926","TREATMENT","2013-12-11","2013-12-11",100,100],
["CDISCPILOT01","EX","CDISC012","DEV0012",101,"PLACEBO",0,"mg","INJECTION","QD","SUBCUTANEOUS","SDS580-926","TREATMENT","2013-12-12","2013-12-12",101,101],
["CDISCPILOT01","EX","CDISC012","DEV0012",102,"PLACEBO",0,"mg","INJECTION","QD","SUBCUTANEOUS","SDS580-926","TREATMENT","2013-12-13","2013-12-13",102,102],
["CDISCPILOT01","EX","CDISC012","DEV0012",103,"PLACEBO",0,"mg","INJECTION","QD","SUBCUTANEOUS","SDS580-926","TREATMENT","2013-12-14","2013-12-14",103,103],
["CDISCPILOT01","EX","CDISC012","DEV0012",104,"PLACEBO",0,"mg","INJECTION","QD","SUBCUTANEOUS","SDS580-926","TREATMENT","2013-12-15","2013-12-15",104,104],
["CDISCPILOT01","EX","CDISC012","DEV0012",105,"PLACEBO",0,"mg","INJECTION","QD","SUBCUTANEOUS","SDS580-926","TREATMENT","2013-12-16","2013-12-16",105,105],
["CDISCPILOT01","EX","CDISC012","DEV0012",106,"PLACEBO",0,"mg","INJECTION","QD","SUBCUTANEOUS","SDS580-926","TREATMENT","2013-12-17","2013-12-17",106,106],
["CDISCPILOT01","EX","CDISC012","DEV0012",107,"PLACEBO",0,"mg","INJECTION","QD","SUBCUTANEOUS","SDS580-926","TREATMENT","2013-12-18","2013-12-18",107,107],
["CDISCPILOT01","EX","CDISC012","DEV0012",108,"PLACEBO",0,"mg","INJECTION","QD","SUBCUTANEOUS","SDS580-926","TREATMENT","2013-12-19","2013-12-19",108,108],
["CDISCPILOT01","EX","CDISC012","DEV0012",109,"PLACEBO",0,"mg","INJECTION","QD","SUBCUTANEOUS","SDS580-926","TREATMENT","2013-12-20","2013-12-20",109,109],
["CDISCPILOT01","EX","CDISC012","DEV0012",110,"PLACEBO",0,"mg","INJECTION","QD","SUBCUTANEOUS","SDS580-926","TREATMENT","2013-12-21","2013-12-21",110,110],
["CDISCPILOT01","EX","CDISC012","DEV0012",111,"PLACEBO",0,"mg","INJECTION","QD","SUBCUTANEOUS","SDS580-926","TREATMENT","2013-12-22","2013-12-22",111,111],
["CDISCPILOT01","EX","CDISC012","DEV0012",112,"PLACEBO",0,"mg","INJECTION","QD","SUBCUTANEOUS","SDS580-926","TREATMENT","2013-12-23","2013-12-23",112,112],
["CDISCPILOT01","EX","CDISC012","DEV0012",113,"PLACEBO",0,"mg","INJECTION","QD","SUBCUTANEOUS","SDS580-926","TREATMENT","2013-12-24","2013-12-24",113,113],
["CDISCPILOT01","EX","CDISC012","DEV0012",114,"PLACEBO",0,"mg","INJECTION","QD","SUBCUTANEOUS","SDS580-926","TREATMENT","2013-12-25","2013-12-25",114,114],
["CDISCPILOT01","EX","CDISC012","DEV0012",115,"PLACEBO",0,"mg","INJECTION","QD","SUBCUTANEOUS","SDS580-926","TREATMENT","2013-12-26","2013-12-26",115,115],
["CDISCPILOT01","EX","CDISC012","DEV0012",116,"PLACEBO",0,"mg","INJECTION","QD","SUBCUTANEOUS","SDS580-926","TREATMENT","2013-12-27","2013-12-27",116,116],
