{
  "clinicalData":{"studyOID":"cdisc.com/CDISCPILOT01","metaDataVersionOID":"MDV.MSGv2.0.SDTMIG.3.3.SDTM.1.7","itemGroupData": {"IG.FT":{"records":4488,"name":"FT","label":"Functional Tests","items":[{"OID": "IT.FT.STUDYID", "name":"STUDYID", "label":"Study Identifier", "type":"string", "length":12},{"OID": "IT.FT.DOMAIN", "name":"DOMAIN", "label":"Domain Abbreviation", "type":"string", "length":2},{"OID": "IT.FT.USUBJID", "name":"USUBJID", "label":"Unique Subject Identifier", "type":"string", "length":8},{"OID": "IT.FT.FTSEQ", "name":"FTSEQ", "label":"Sequence Number", "type":"integer"},{"OID": "IT.FT.FTTESTCD", "name":"FTTESTCD", "label":"Short Name of Test", "type":"string", "length":7},{"OID": "IT.FT.FTTEST", "name":"FTTEST", "label":"Name of Test", "type":"string", "length":23},{"OID": "IT.FT.FTCAT", "name":"FTCAT", "label":"Category", "type":"string", "length":8},{"OID": "IT.FT.FTSCAT", "name":"FTSCAT", "label":"Subcategory", "type":"string", "length":200},{"OID": "IT.FT.FTORRES", "name":"FTORRES", "label":"Result or Finding in Original Units", "type":"string", "length":12},{"OID": "IT.FT.FTSTRESC", "name":"FTSTRESC", "label":"Result or Finding in Standard Format", "type":"string", "length":200},{"OID": "IT.FT.FTSTRESN", "name":"FTSTRESN", "label":"Numeric Result/Finding in Standard Units", "type":"integer"},{"OID": "IT.FT.FTLOBXFL", "name":"FTLOBXFL", "label":"Last Observation Before Exposure Flag", "type":"string", "length":1},{"OID": "IT.FT.FTREPNUM", "name":"FTREPNUM", "label":"Repetition Number", "type":"integer"},{"OID": "IT.FT.VISITNUM", "name":"VISITNUM", "label":"Visit Number", "type":"float", "length":8, "fractionDigits":2},{"OID": "IT.FT.VISIT", "name":"VISIT", "label":"Visit Name", "type":"string", "length":200},{"OID": "IT.FT.EPOCH", "name":"EPOCH", "label":"Epoch", "type":"string", "length":9},{"OID": "IT.FT.FTDTC", "name":"FTDTC", "label":"Date/Time of Test", "type":"string"},{"OID": "IT.FT.FTDY", "name":"FTDY", "label":"Study Day of Test", "type":"integer"},{"OID": "IT.FT.FTTPT", "name":"FTTPT", "label":"Planned Time Point Name", "type":"string", "length":200},{"OID": "IT.FT.FTTPTNUM", "name":"FTTPTNUM", "label":"Planned Time Point Number", "type":"integer"},{"OID": "IT.FT.FTELTM", "name":"FTELTM", "label":"Planned Elapsed Time from Time Point Ref", "type":"string", "length":200},{"OID": "IT.FT.FTTPTREF", "name":"FTTPTREF", "label":"Time Point Reference", "type":"string", "length":200}],"itemData": [
["CDISCPILOT01","FT","CDISC001",1,"AVL0201","AVL02-List A Word 1","AVLT-REY","FORM 1","RECALLED","RECALLED",null,"Y",1,2,"SCREENING 2","SCREENING","2012-11-28T12:00",-2,null,null,null,null],
["CDISCPILOT01","FT","CDISC001",2,"AVL0202","AVL02-List A Word 2","AVLT-REY","FORM 1","RECALLED","RECALLED",null,"Y",1,2,"SCREENING 2","SCREENING","2012-11-28T12:00",-2,null,null,null,null],
["CDISCPILOT01","FT","CDISC001",3,"AVL0203","AVL02-List A Word 3","AVLT-REY","FORM 1","NOT RECALLED","NOT RECALLED",null,"Y",1,2,"SCREENING 2","SCREENING","2012-11-28T12:00",-2,null,null,null,null],
["CDISCPILOT01","FT","CDISC001",4,"AVL0204","AVL02-List A Word 4","AVLT-REY","FORM 1","RECALLED","RECALLED",null,"Y",1,2,"SCREENING 2","SCREENING","2012-11-28T12:00",-2,null,null,null,null],
["CDISCPILOT01","FT","CDISC001",5,"AVL0205","AVL02-List A Word 5","AVLT-REY","FORM 1","RECALLED","RECALLED",null,"Y",1,2,"SCREENING 2","SCREENING","2012-11-28T12:00",-2,null,null,null,null],
["CDISCPILOT01","FT","CDISC001",6,"AVL0206","AVL02-List A Word 6","AVLT-REY","FORM 1","NOT RECALLED","NOT RECALLED",null,"Y",1,2,"SCREENING 2","SCREENING","2012-11-28T12:00",-2,null,null,null,null],
["CDISCPILOT01","FT","CDISC001",7,"AVL0207","AVL02-List A Word 7","AVLT-REY","FORM 1","RECALLED","RECALLED",null,"Y",1,2,"SCREENING 2","SCREENING","2012-11-28T12:00",-2,null,null,null,null],
["CDISCPILOT01","FT","CDISC001",8,"AVL0208","AVL02-List A Word 8","AVLT-REY","FORM 1","NOT RECALLED","NOT RECALLED",null,"Y",1,2,"SCREENING 2","SCREENING","2012-11-28T12:00",-2,null,null,null,null],
["CDISCPILOT01","FT","CDISC001",9,"AVL0209","AVL02-List A Word 9","AVLT-REY","FORM 1","NOT RECALLED","NOT RECALLED",null,"Y",1,2,"SCREENING 2","SCREENING","2012-11-28T12:00",-2,null,null,null,null],
["CDISCPILOT01","FT","CDISC001",10,"AVL0210","AVL02-List A Word 10","AVLT-REY","FORM 1","NOT RECALLED","NOT RECALLED",null,"Y",1,2,"SCREENING 2","SCREENING","2012-11-28T12:00",-2,null,null,null,null],
["CDISCPILOT01","FT","CDISC001",11,"AVL0211","AVL02-List A Word 11","AVLT-REY","FORM 1","NOT RECALLED","NOT RECALLED",null,"Y",1,2,"SCREENING 2","SCREENING","2012-11-28T12:00",-2,null,null,null,null],
["CDISCPILOT01","FT","CDISC001",12,"AVL0212","AVL02-List A Word 12","AVLT-REY","FORM 1","NOT RECALLED","NOT RECALLED",null,"Y",1,2,"SCREENING 2","SCREENING","2012-11-28T12:00",-2,null,null,null,null],
["CDISCPILOT01","FT","CDISC001",13,"AVL0213","AVL02-List A Word 13","AVLT-REY","FORM 1","NOT RECALLED","NOT RECALLED",null,"Y",1,2,"SCREENING 2","SCREENING","2012-11-28T12:00",-2,null,null,null,null],
["CDISCPILOT01","FT","CDISC001",14,"AVL0214","AVL02-List A Word 14","AVLT-REY","FORM 1","NOT RECALLED","NOT RECALLED",null,"Y",1,2,"SCREENING 2","SCREENING","2012-11-28T12:00",-2,null,null,null,null],
["CDISCPILOT01","FT","CDISC001",15,"AVL0215","AVL02-List A Word 15","AVLT-REY","FORM 1","NOT RECALLED","NOT RECALLED",null,"Y",1,2,"SCREENING 2","SCREENING","2012-11-28T12:00",-2,null,null,null,null],
["CDISCPILOT01","FT","CDISC001",16,"AVL0216","AVL02-List A Total","AVLT-REY","FORM 1","5","5",5,"Y",1,2,"SCREENING 2","SCREENING","2012-11-28T12:00",-2,null,null,null,null],
["CDISCPILOT01","FT","CDISC001",17,"AVL0217","AVL02-List A Intrusions","AVLT-REY","FORM 1","2","2",2,"Y",1,2,"SCREENING 2","SCREENING","2012-11-28T12:00",-2,null,null,null,null],
["CDISCPILOT01","FT","CDISC001",18,"AVL0201","AVL02-List A Word 1","AVLT-REY","FORM 1","RECALLED","RECALLED",null,"Y",2,2,"SCREENING 2","SCREENING","2012-11-28T12:05",-2,null,null,null,null],
["CDISCPILOT01","FT","CDISC001",19,"AVL0202","AVL02-List A Word 2","AVLT-REY","FORM 1","RECALLED","RECALLED",null,"Y",2,2,"SCREENING 2","SCREENING","2012-11-28T12:05",-2,null,null,null,null],
["CDISCPILOT01","FT","CDISC001",20,"AVL0203","AVL02-List A Word 3","AVLT-REY","FORM 1","NOT RECALLED","NOT RECALLED",null,"Y",2,2,"SCREENING 2","SCREENING","2012-11-28T12:05",-2,null,null,null,null],
["CDISCPILOT01","FT","CDISC001",21,"AVL0204","AVL02-List A Word 4","AVLT-REY","FORM 1","RECALLED","RECALLED",null,"Y",2,2,"SCREENING 2","SCREENING","2012-11-28T12:05",-2,null,null,null,null],
["CDISCPILOT01","FT","CDISC001",22,"AVL0205","AVL02-List A Word 5","AVLT-REY","FORM 1","RECALLED","RECALLED",null,"Y",2,2,"SCREENING 2","SCREENING","2012-11-28T12:05",-2,null,null,null,null],
["CDISCPILOT01","FT","CDISC001",23,"AVL0206","AVL02-List A Word 6","AVLT-REY","FORM 1","NOT RECALLED","NOT RECALLED",null,"Y",2,2,"SCREENING 2","SCREENING","2012-11-28T12:05",-2,null,null,null,null],
["CDISCPILOT01","FT","CDISC001",24,"AVL0207","AVL02-List A Word 7","AVLT-REY","FORM 1","RECALLED","RECALLED",null,"Y",2,2,"SCREENING 2","SCREENING","2012-11-28T12:05",-2,null,null,null,null],
["CDISCPILOT01","FT","CDISC001",25,"AVL0208","AVL02-List A Word 8","AVLT-REY","FORM 1","RECALLED","RECALLED",null,"Y",2,2,"SCREENING 2","SCREENING","2012-11-28T12:05",-2,null,null,null,null],
["CDISCPILOT01","FT","CDISC001",26,"AVL0209","AVL02-List A Word 9","AVLT-REY","FORM 1","NOT RECALLED","NOT RECALLED",null,"Y",2,2,"SCREENING 2","SCREENING","2012-11-28T12:05",-2,null,null,null,null],
["CDISCPILOT01","FT","CDISC001",27,"AVL0210","AVL02-List A Word 10","AVLT-REY","FORM 1","NOT RECALLED","NOT RECALLED",null,"Y",2,2,"SCREENING 2","SCREENING","2012-11-28T12:05",-2,null,null,null,null],
["CDISCPILOT01","FT","CDISC001",28,"AVL0211","AVL02-List A Word 11","AVLT-REY","FORM 1","NOT RECALLED","NOT RECALLED",null,"Y",2,2,"SCREENING 2","SCREENING","2012-11-28T12:05",-2,null,null,null,null],
["CDISCPILOT01","FT","CDISC001",29,"AVL0212","AVL02-List A Word 12","AVLT-REY","FORM 1","NOT RECALLED","NOT RECALLED",null,"Y",2,2,"SCREENING 2","SCREENING","2012-11-28T12:05",-2,null,null,null,null],
["CDISCPILOT01","FT","CDISC001",30,"AVL0213","AVL02-List A Word 13","AVLT-REY","FORM 1","NOT RECALLED","NOT RECALLED",null,"Y",2,2,"SCREENING 2","SCREENING","2012-11-28T12:05",-2,null,null,null,null],
["CDISCPILOT01","FT","CDISC001",31,"AVL0214","AVL02-List A Word 14","AVLT-REY","FORM 1","NOT RECALLED","NOT RECALLED",null,"Y",2,2,"SCREENING 2","SCREENING","2012-11-28T12:05",-2,null,null,null,null],
["CDISCPILOT01","FT","CDISC001",32,"AVL0215","AVL02-List A Word 15","AVLT-REY","FORM 1","NOT RECALLED","NOT RECALLED",null,"Y",2,2,"SCREENING 2","SCREENING","2012-11-28T12:05",-2,null,null,null,null],
["CDISCPILOT01","FT","CDISC001",33,"AVL0216","AVL02-List A Total","AVLT-REY","FORM 1","6","6",6,"Y",2,2,"SCREENING 2","SCREENING","2012-11-28T12:05",-2,null,null,null,null],
["CDISCPILOT01","FT","CDISC001",34,"AVL0217","AVL02-List A Intrusions","AVLT-REY","FORM 1","2","2",2,"Y",2,2,"SCREENING 2","SCREENING","2012-11-28T12:05",-2,null,null,null,null],
["CDISCPILOT01","FT","CDISC001",35,"AVL0201","AVL02-List A Word 1","AVLT-REY","FORM 1","RECALLED","RECALLED",null,"Y",3,2,"SCREENING 2","SCREENING","2012-11-28T12:10",-2,null,null,null,null],
["CDISCPILOT01","FT","CDISC001",36,"AVL0202","AVL02-List A Word 2","AVLT-REY","FORM 1","RECALLED","RECALLED",null,"Y",3,2,"SCREENING 2","SCREENING","2012-11-28T12:10",-2,null,null,null,null],
["CDISCPILOT01","FT","CDISC001",37,"AVL0203","AVL02-List A Word 3","AVLT-REY","FORM 1","NOT RECALLED","NOT RECALLED",null,"Y",3,2,"SCREENING 2","SCREENING","2012-11-28T12:10",-2,null,null,null,null],
["CDISCPILOT01","FT","CDISC001",38,"AVL0204","AVL02-List A Word 4","AVLT-REY","FORM 1","RECALLED","RECALLED",null,"Y",3,2,"SCREENING 2","SCREENING","2012-11-28T12:10",-2,null,null,null,null],
["CDISCPILOT01","FT","CDISC001",39,"AVL0205","AVL02-List A Word 5","AVLT-REY","FORM 1","RECALLED","RECALLED",null,"Y",3,2,"SCREENING 2","SCREENING","2012-11-28T12:10",-2,null,null,null,null],
["CDISCPILOT01","FT","CDISC001",40,"AVL0206","AVL02-List A Word 6","AVLT-REY","FORM 1","NOT RECALLED","NOT RECALLED",null,"Y",3,2,"SCREENING 2","SCREENING","2012-11-28T12:10",-2,null,null,null,null],
["CDISCPILOT01","FT","CDISC001",41,"AVL0207","AVL02-List A Word 7","AVLT-REY","FORM 1","RECALLED","RECALLED",null,"Y",3,2,"SCREENING 2","SCREENING","2012-11-28T12:10",-2,null,null,null,null],
["CDISCPILOT01","FT","CDISC001",42,"AVL0208","AVL02-List A Word 8","AVLT-REY","FORM 1","NOT RECALLED","NOT RECALLED",null,"Y",3,2,"SCREENING 2","SCREENING","2012-11-28T12:10",-2,null,null,null,null],
["CDISCPILOT01","FT","CDISC001",43,"AVL0209","AVL02-List A Word 9","AVLT-REY","FORM 1","NOT RECALLED","NOT RECALLED",null,"Y",3,2,"SCREENING 2","SCREENING","2012-11-28T12:10",-2,null,null,null,null],
["CDISCPILOT01","FT","CDISC001",44,"AVL0210","AVL02-List A Word 10","AVLT-REY","FORM 1","NOT RECALLED","NOT RECALLED",null,"Y",3,2,"SCREENING 2","SCREENING","2012-11-28T12:10",-2,null,null,null,null],
["CDISCPILOT01","FT","CDISC001",45,"AVL0211","AVL02-List A Word 11","AVLT-REY","FORM 1","RECALLED","RECALLED",null,"Y",3,2,"SCREENING 2","SCREENING","2012-11-28T12:10",-2,null,null,null,null],
["CDISCPILOT01","FT","CDISC001",46,"AVL0212","AVL02-List A Word 12","AVLT-REY","FORM 1","RECALLED","RECALLED",null,"Y",3,2,"SCREENING 2","SCREENING","2012-11-28T12:10",-2,null,null,null,null],
["CDISCPILOT01","FT","CDISC001",47,"AVL0213","AVL02-List A Word 13","AVLT-REY","FORM 1","NOT RECALLED","NOT RECALLED",null,"Y",3,2,"SCREENING 2","SCREENING","2012-11-28T12:10",-2,null,null,null,null],
["CDISCPILOT01","FT","CDISC001",48,"AVL0214","AVL02-List A Word 14","AVLT-REY","FORM 1","NOT RECALLED","NOT RECALLED",null,"Y",3,2,"SCREENING 2","SCREENING","2012-11-28T12:10",-2,null,null,null,null],
["CDISCPILOT01","FT","CDISC001",49,"AVL0215","AVL02-List A Word 15","AVLT-REY","FORM 1","NOT RECALLED","NOT RECALLED",null,"Y",3,2,"SCREENING 2","SCREENING","2012-11-28T12:10",-2,null,null,null,null],
["CDISCPILOT01","FT","CDISC001",50,"AVL0216","AVL02-List A Total","AVLT-REY","FORM 1","7","7",7,"Y",3,2,"SCREENING 2","SCREENING","2012-11-28T12:10",-2,null,null,null,null],
["CDISCPILOT01","FT","CDISC001",51,"AVL0217","AVL02-List A Intrusions","AVLT-REY","FORM 1","1","1",1,"Y",3,2,"SCREENING 2","SCREENING","2012-11-28T12:10",-2,null,null,null,null],
["CDISCPILOT01","FT","CDISC001",52,"AVL0201","AVL02-List A Word 1","AVLT-REY","FORM 1","RECALLED","RECALLED",null,"Y",4,2,"SCREENING 2","SCREENING","2012-11-28T12:15",-2,null,null,null,null],
["CDISCPILOT01","FT","CDISC001",53,"AVL0202","AVL02-List A Word 2","AVLT-REY","FORM 1","RECALLED","RECALLED",null,"Y",4,2,"SCREENING 2","SCREENING","2012-11-28T12:15",-2,null,null,null,null],
["CDISCPILOT01","FT","CDISC001",54,"AVL0203","AVL02-List A Word 3","AVLT-REY","FORM 1","NOT RECALLED","NOT RECALLED",null,"Y",4,2,"SCREENING 2","SCREENING","2012-11-28T12:15",-2,null,null,null,null],
["CDISCPILOT01","FT","CDISC001",55,"AVL0204","AVL02-List A Word 4","AVLT-REY","FORM 1","RECALLED","RECALLED",null,"Y",4,2,"SCREENING 2","SCREENING","2012-11-28T12:15",-2,null,null,null,null],
["CDISCPILOT01","FT","CDISC001",56,"AVL0205","AVL02-List A Word 5","AVLT-REY","FORM 1","RECALLED","RECALLED",null,"Y",4,2,"SCREENING 2","SCREENING","2012-11-28T12:15",-2,null,null,null,null],
["CDISCPILOT01","FT","CDISC001",57,"AVL0206","AVL02-List A Word 6","AVLT-REY","FORM 1","NOT RECALLED","NOT RECALLED",null,"Y",4,2,"SCREENING 2","SCREENING","2012-11-28T12:15",-2,null,null,null,null],
["CDISCPILOT01","FT","CDISC001",58,"AVL0207","AVL02-List A Word 7","AVLT-REY","FORM 1","RECALLED","RECALLED",null,"Y",4,2,"SCREENING 2","SCREENING","2012-11-28T12:15",-2,null,null,null,null],
["CDISCPILOT01","FT","CDISC001",59,"AVL0208","AVL02-List A Word 8","AVLT-REY","FORM 1","NOT RECALLED","NOT RECALLED",null,"Y",4,2,"SCREENING 2","SCREENING","2012-11-28T12:15",-2,null,null,null,null],
["CDISCPILOT01","FT","CDISC001",60,"AVL0209","AVL02-List A Word 9","AVLT-REY","FORM 1","RECALLED","RECALLED",null,"Y",4,2,"SCREENING 2","SCREENING","2012-11-28T12:15",-2,null,null,null,null],
["CDISCPILOT01","FT","CDISC001",61,"AVL0210","AVL02-List A Word 10","AVLT-REY","FORM 1","RECALLED","RECALLED",null,"Y",4,2,"SCREENING 2","SCREENING","2012-11-28T12:15",-2,null,null,null,null],
["CDISCPILOT01","FT","CDISC001",62,"AVL0211","AVL02-List A Word 11","AVLT-REY","FORM 1","RECALLED","RECALLED",null,"Y",4,2,"SCREENING 2","SCREENING","2012-11-28T12:15",-2,null,null,null,null],
["CDISCPILOT01","FT","CDISC001",63,"AVL0212","AVL02-List A Word 12","AVLT-REY","FORM 1","NOT RECALLED","NOT RECALLED",null,"Y",4,2,"SCREENING 2","SCREENING","2012-11-28T12:15",-2,null,null,null,null],
["CDISCPILOT01","FT","CDISC001",64,"AVL0213","AVL02-List A Word 13","AVLT-REY","FORM 1","NOT RECALLED","NOT RECALLED",null,"Y",4,2,"SCREENING 2","SCREENING","2012-11-28T12:15",-2,null,null,null,null],
["CDISCPILOT01","FT","CDISC001",65,"AVL0214","AVL02-List A Word 14","AVLT-REY","FORM 1","NOT RECALLED","NOT RECALLED",null,"Y",4,2,"SCREENING 2","SCREENING","2012-11-28T12:15",-2,null,null,null,null],
["CDISCPILOT01","FT","CDISC001",66,"AVL0215","AVL02-List A Word 15","AVLT-REY","FORM 1","NOT RECALLED","NOT RECALLED",null,"Y",4,2,"SCREENING 2","SCREENING","2012-11-28T12:15",-2,null,null,null,null],
["CDISCPILOT01","FT","CDISC001",67,"AVL0216","AVL02-List A Total","AVLT-REY","FORM 1","8","8",8,"Y",4,2,"SCREENING 2","SCREENING","2012-11-28T12:15",-2,null,null,null,null],
["CDISCPILOT01","FT","CDISC001",68,"AVL0217","AVL02-List A Intrusions","AVLT-REY","FORM 1","1","1",1,"Y",4,2,"SCREENING 2","SCREENING","2012-11-28T12:15",-2,null,null,null,null],
["CDISCPILOT01","FT","CDISC001",69,"AVL0201","AVL02-List A Word 1","AVLT-REY","FORM 1","RECALLED","RECALLED",null,"Y",5,2,"SCREENING 2","SCREENING","2012-11-28T12:20",-2,null,null,null,null],
["CDISCPILOT01","FT","CDISC001",70,"AVL0202","AVL02-List A Word 2","AVLT-REY","FORM 1","RECALLED","RECALLED",null,"Y",5,2,"SCREENING 2","SCREENING","2012-11-28T12:20",-2,null,null,null,null],
["CDISCPILOT01","FT","CDISC001",71,"AVL0203","AVL02-List A Word 3","AVLT-REY","FORM 1","NOT RECALLED","NOT RECALLED",null,"Y",5,2,"SCREENING 2","SCREENING","2012-11-28T12:20",-2,null,null,null,null],
["CDISCPILOT01","FT","CDISC001",72,"AVL0204","AVL02-List A Word 4","AVLT-REY","FORM 1","RECALLED","RECALLED",null,"Y",5,2,"SCREENING 2","SCREENING","2012-11-28T12:20",-2,null,null,null,null],
["CDISCPILOT01","FT","CDISC001",73,"AVL0205","AVL02-List A Word 5","AVLT-REY","FORM 1","RECALLED","RECALLED",null,"Y",5,2,"SCREENING 2","SCREENING","2012-11-28T12:20",-2,null,null,null,null],
["CDISCPILOT01","FT","CDISC001",74,"AVL0206","AVL02-List A Word 6","AVLT-REY","FORM 1","NOT RECALLED","NOT RECALLED",null,"Y",5,2,"SCREENING 2","SCREENING","2012-11-28T12:20",-2,null,null,null,null],
["CDISCPILOT01","FT","CDISC001",75,"AVL0207","AVL02-List A Word 7","AVLT-REY","FORM 1","RECALLED","RECALLED",null,"Y",5,2,"SCREENING 2","SCREENING","2012-11-28T12:20",-2,null,null,null,null],
["CDISCPILOT01","FT","CDISC001",76,"AVL0208","AVL02-List A Word 8","AVLT-REY","FORM 1","NOT RECALLED","NOT RECALLED",null,"Y",5,2,"SCREENING 2","SCREENING","2012-11-28T12:20",-2,null,null,null,null],
["CDISCPILOT01","FT","CDISC001",77,"AVL0209","AVL02-List A Word 9","AVLT-REY","FORM 1","RECALLED","RECALLED",null,"Y",5,2,"SCREENING 2","SCREENING","2012-11-28T12:20",-2,null,null,null,null],
["CDISCPILOT01","FT","CDISC001",78,"AVL0210","AVL02-List A Word 10","AVLT-REY","FORM 1","RECALLED","RECALLED",null,"Y",5,2,"SCREENING 2","SCREENING","2012-11-28T12:20",-2,null,null,null,null],
["CDISCPILOT01","FT","CDISC001",79,"AVL0211","AVL02-List A Word 11","AVLT-REY","FORM 1","RECALLED","RECALLED",null,"Y",5,2,"SCREENING 2","SCREENING","2012-11-28T12:20",-2,null,null,null,null],
["CDISCPILOT01","FT","CDISC001",80,"AVL0212","AVL02-List A Word 12","AVLT-REY","FORM 1","NOT RECALLED","NOT RECALLED",null,"Y",5,2,"SCREENING 2","SCREENING","2012-11-28T12:20",-2,null,null,null,null],
["CDISCPILOT01","FT","CDISC001",81,"AVL0213","AVL02-List A Word 13","AVLT-REY","FORM 1","NOT RECALLED","NOT RECALLED",null,"Y",5,2,"SCREENING 2","SCREENING","2012-11-28T12:20",-2,null,null,null,null],
["CDISCPILOT01","FT","CDISC001",82,"AVL0214","AVL02-List A Word 14","AVLT-REY","FORM 1","NOT RECALLED","NOT RECALLED",null,"Y",5,2,"SCREENING 2","SCREENING","2012-11-28T12:20",-2,null,null,null,null],
["CDISCPILOT01","FT","CDISC001",83,"AVL0215","AVL02-List A Word 15","AVLT-REY","FORM 1","NOT RECALLED","NOT RECALLED",null,"Y",5,2,"SCREENING 2","SCREENING","2012-11-28T12:20",-2,null,null,null,null],
["CDISCPILOT01","FT","CDISC001",84,"AVL0216","AVL02-List A Total","AVLT-REY","FORM 1","8","8",8,"Y",5,2,"SCREENING 2","SCREENING","2012-11-28T12:20",-2,null,null,null,null],
["CDISCPILOT01","FT","CDISC001",85,"AVL0217","AVL02-List A Intrusions","AVLT-REY","FORM 1","2","2",2,"Y",5,2,"SCREENING 2","SCREENING","2012-11-28T12:20",-2,null,null,null,null],
["CDISCPILOT01","FT","CDISC001",86,"AVL0218","AVL02-List B Word 1","AVLT-REY","FORM 1","RECALLED","RECALLED",null,"Y",null,2,"SCREENING 2","SCREENING","2012-11-28T12:25",-2,null,null,null,null],
["CDISCPILOT01","FT","CDISC001",87,"AVL0219","AVL02-List B Word 2","AVLT-REY","FORM 1","NOT RECALLED","NOT RECALLED",null,"Y",null,2,"SCREENING 2","SCREENING","2012-11-28T12:25",-2,null,null,null,null],
["CDISCPILOT01","FT","CDISC001",88,"AVL0220","AVL02-List B Word 3","AVLT-REY","FORM 1","NOT RECALLED","NOT RECALLED",null,"Y",null,2,"SCREENING 2","SCREENING","2012-11-28T12:25",-2,null,null,null,null],
["CDISCPILOT01","FT","CDISC001",89,"AVL0221","AVL02-List B Word 4","AVLT-REY","FORM 1","RECALLED","RECALLED",null,"Y",null,2,"SCREENING 2","SCREENING","2012-11-28T12:25",-2,null,null,null,null],
["CDISCPILOT01","FT","CDISC001",90,"AVL0222","AVL02-List B Word 5","AVLT-REY","FORM 1","RECALLED","RECALLED",null,"Y",null,2,"SCREENING 2","SCREENING","2012-11-28T12:25",-2,null,null,null,null],
["CDISCPILOT01","FT","CDISC001",91,"AVL0223","AVL02-List B Word 6","AVLT-REY","FORM 1","NOT RECALLED","NOT RECALLED",null,"Y",null,2,"SCREENING 2","SCREENING","2012-11-28T12:25",-2,null,null,null,null],
["CDISCPILOT01","FT","CDISC001",92,"AVL0224","AVL02-List B Word 7","AVLT-REY","FORM 1","NOT RECALLED","NOT RECALLED",null,"Y",null,2,"SCREENING 2","SCREENING","2012-11-28T12:25",-2,null,null,null,null],
["CDISCPILOT01","FT","CDISC001",93,"AVL0225","AVL02-List B Word 8","AVLT-REY","FORM 1","RECALLED","RECALLED",null,"Y",null,2,"SCREENING 2","SCREENING","2012-11-28T12:25",-2,null,null,null,null],
["CDISCPILOT01","FT","CDISC001",94,"AVL0226","AVL02-List B Word 9","AVLT-REY","FORM 1","NOT RECALLED","NOT RECALLED",null,"Y",null,2,"SCREENING 2","SCREENING","2012-11-28T12:25",-2,null,null,null,null],
["CDISCPILOT01","FT","CDISC001",95,"AVL0227","AVL02-List B Word 10","AVLT-REY","FORM 1","NOT RECALLED","NOT RECALLED",null,"Y",null,2,"SCREENING 2","SCREENING","2012-11-28T12:25",-2,null,null,null,null],
["CDISCPILOT01","FT","CDISC001",96,"AVL0228","AVL02-List B Word 11","AVLT-REY","FORM 1","RECALLED","RECALLED",null,"Y",null,2,"SCREENING 2","SCREENING","2012-11-28T12:25",-2,null,null,null,null],
["CDISCPILOT01","FT","CDISC001",97,"AVL0229","AVL02-List B Word 12","AVLT-REY","FORM 1","NOT RECALLED","NOT RECALLED",null,"Y",null,2,"SCREENING 2","SCREENING","2012-11-28T12:25",-2,null,null,null,null],
["CDISCPILOT01","FT","CDISC001",98,"AVL0230","AVL02-List B Word 13","AVLT-REY","FORM 1","RECALLED","RECALLED",null,"Y",null,2,"SCREENING 2","SCREENING","2012-11-28T12:25",-2,null,null,null,null],
["CDISCPILOT01","FT","CDISC001",99,"AVL0231","AVL02-List B Word 14","AVLT-REY","FORM 1","RECALLED","RECALLED",null,"Y",null,2,"SCREENING 2","SCREENING","2012-11-28T12:25",-2,null,null,null,null],
["CDISCPILOT01","FT","CDISC001",100,"AVL0232","AVL02-List B Word 15","AVLT-REY","FORM 1","RECALLED","RECALLED",null,"Y",null,2,"SCREENING 2","SCREENING","2012-11-28T12:25",-2,null,null,null,null],
["CDISCPILOT01","FT","CDISC001",101,"AVL0233","AVL02- List B Total","AVLT-REY","FORM 1","8","8",8,"Y",null,2,"SCREENING 2","SCREENING","2012-11-28T12:25",-2,null,null,null,null],
["CDISCPILOT01","FT","CDISC001",102,"AVL0234","AVL02-List B Intrusions","AVLT-REY","FORM 1","1","1",1,"Y",null,2,"SCREENING 2","SCREENING","2012-11-28T12:25",-2,null,null,null,null],
["CDISCPILOT01","FT","CDISC001",103,"AVL0201","AVL02-List A Word 1","AVLT-REY","FORM 1","RECALLED","RECALLED",null,"Y",6,2,"SCREENING 2","SCREENING","2012-11-28T12:30",-2,null,null,null,null],
["CDISCPILOT01","FT","CDISC001",104,"AVL0202","AVL02-List A Word 2","AVLT-REY","FORM 1","RECALLED","RECALLED",null,"Y",6,2,"SCREENING 2","SCREENING","2012-11-28T12:30",-2,null,null,null,null],
["CDISCPILOT01","FT","CDISC001",105,"AVL0203","AVL02-List A Word 3","AVLT-REY","FORM 1","NOT RECALLED","NOT RECALLED",null,"Y",6,2,"SCREENING 2","SCREENING","2012-11-28T12:30",-2,null,null,null,null],
["CDISCPILOT01","FT","CDISC001",106,"AVL0204","AVL02-List A Word 4","AVLT-REY","FORM 1","RECALLED","RECALLED",null,"Y",6,2,"SCREENING 2","SCREENING","2012-11-28T12:30",-2,null,null,null,null],
["CDISCPILOT01","FT","CDISC001",107,"AVL0205","AVL02-List A Word 5","AVLT-REY","FORM 1","RECALLED","RECALLED",null,"Y",6,2,"SCREENING 2","SCREENING","2012-11-28T12:30",-2,null,null,null,null],
["CDISCPILOT01","FT","CDISC001",108,"AVL0206","AVL02-List A Word 6","AVLT-REY","FORM 1","NOT RECALLED","NOT RECALLED",null,"Y",6,2,"SCREENING 2","SCREENING","2012-11-28T12:30",-2,null,null,null,null],
["CDISCPILOT01","FT","CDISC001",109,"AVL0207","AVL02-List A Word 7","AVLT-REY","FORM 1","RECALLED","RECALLED",null,"Y",6,2,"SCREENING 2","SCREENING","2012-11-28T12:30",-2,null,null,null,null],
["CDISCPILOT01","FT","CDISC001",110,"AVL0208","AVL02-List A Word 8","AVLT-REY","FORM 1","NOT RECALLED","NOT RECALLED",null,"Y",6,2,"SCREENING 2","SCREENING","2012-11-28T12:30",-2,null,null,null,null],
["CDISCPILOT01","FT","CDISC001",111,"AVL0209","AVL02-List A Word 9","AVLT-REY","FORM 1","RECALLED","RECALLED",null,"Y",6,2,"SCREENING 2","SCREENING","2012-11-28T12:30",-2,null,null,null,null],
["CDISCPILOT01","FT","CDISC001",112,"AVL0210","AVL02-List A Word 10","AVLT-REY","FORM 1","RECALLED","RECALLED",null,"Y",6,2,"SCREENING 2","SCREENING","2012-11-28T12:30",-2,null,null,null,null],
["CDISCPILOT01","FT","CDISC001",113,"AVL0211","AVL02-List A Word 11","AVLT-REY","FORM 1","RECALLED","RECALLED",null,"Y",6,2,"SCREENING 2","SCREENING","2012-11-28T12:30",-2,null,null,null,null],
["CDISCPILOT01","FT","CDISC001",114,"AVL0212","AVL02-List A Word 12","AVLT-REY","FORM 1","NOT RECALLED","NOT RECALLED",null,"Y",6,2,"SCREENING 2","SCREENING","2012-11-28T12:30",-2,null,null,null,null],
["CDISCPILOT01","FT","CDISC001",115,"AVL0213","AVL02-List A Word 13","AVLT-REY","FORM 1","NOT RECALLED","NOT RECALLED",null,"Y",6,2,"SCREENING 2","SCREENING","2012-11-28T12:30",-2,null,null,null,null],
["CDISCPILOT01","FT","CDISC001",116,"AVL0214","AVL02-List A Word 14","AVLT-REY","FORM 1","NOT RECALLED","NOT RECALLED",null,"Y",6,2,"SCREENING 2","SCREENING","2012-11-28T12:30",-2,null,null,null,null],
["CDISCPILOT01","FT","CDISC001",117,"AVL0215","AVL02-List A Word 15","AVLT-REY","FORM 1","NOT RECALLED","NOT RECALLED",null,"Y",6,2,"SCREENING 2","SCREENING","2012-11-28T12:30",-2,null,null,null,null],
["CDISCPILOT01","FT","CDISC001",118,"AVL0216","AVL02-List A Total","AVLT-REY","FORM 1","8","8",8,"Y",6,2,"SCREENING 2","SCREENING","2012-11-28T12:30",-2,null,null,null,null],
["CDISCPILOT01","FT","CDISC001",119,"AVL0217","AVL02-List A Intrusions","AVLT-REY","FORM 1","0","0",0,"Y",6,2,"SCREENING 2","SCREENING","2012-11-28T12:30",-2,null,null,null,null],
["CDISCPILOT01","FT","CDISC001",120,"AVL0201","AVL02-List A Word 1","AVLT-REY","FORM 1","RECALLED","RECALLED",null,"Y",7,2,"SCREENING 2","SCREENING","2012-11-28T13:00",-2,"30 MIN POST",1,"PT30M","LIST A RECALL 6"],
["CDISCPILOT01","FT","CDISC001",121,"AVL0202","AVL02-List A Word 2","AVLT-REY","FORM 1","RECALLED","RECALLED",null,"Y",7,2,"SCREENING 2","SCREENING","2012-11-28T13:00",-2,"30 MIN POST",1,"PT30M","LIST A RECALL 6"],
["CDISCPILOT01","FT","CDISC001",122,"AVL0203","AVL02-List A Word 3","AVLT-REY","FORM 1","NOT RECALLED","NOT RECALLED",null,"Y",7,2,"SCREENING 2","SCREENING","2012-11-28T13:00",-2,"30 MIN POST",1,"PT30M","LIST A RECALL 6"],
["CDISCPILOT01","FT","CDISC001",123,"AVL0204","AVL02-List A Word 4","AVLT-REY","FORM 1","RECALLED","RECALLED",null,"Y",7,2,"SCREENING 2","SCREENING","2012-11-28T13:00",-2,"30 MIN POST",1,"PT30M","LIST A RECALL 6"],
["CDISCPILOT01","FT","CDISC001",124,"AVL0205","AVL02-List A Word 5","AVLT-REY","FORM 1","RECALLED","RECALLED",null,"Y",7,2,"SCREENING 2","SCREENING","2012-11-28T13:00",-2,"30 MIN POST",1,"PT30M","LIST A RECALL 6"],
["CDISCPILOT01","FT","CDISC001",125,"AVL0206","AVL02-List A Word 6","AVLT-REY","FORM 1","RECALLED","RECALLED",null,"Y",7,2,"SCREENING 2","SCREENING","2012-11-28T13:00",-2,"30 MIN POST",1,"PT30M","LIST A RECALL 6"],
["CDISCPILOT01","FT","CDISC001",126,"AVL0207","AVL02-List A Word 7","AVLT-REY","FORM 1","RECALLED","RECALLED",null,"Y",7,2,"SCREENING 2","SCREENING","2012-11-28T13:00",-2,"30 MIN POST",1,"PT30M","LIST A RECALL 6"],
["CDISCPILOT01","FT","CDISC001",127,"AVL0208","AVL02-List A Word 8","AVLT-REY","FORM 1","NOT RECALLED","NOT RECALLED",null,"Y",7,2,"SCREENING 2","SCREENING","2012-11-28T13:00",-2,"30 MIN POST",1,"PT30M","LIST A RECALL 6"],
["CDISCPILOT01","FT","CDISC001",128,"AVL0209","AVL02-List A Word 9","AVLT-REY","FORM 1","NOT RECALLED","NOT RECALLED",null,"Y",7,2,"SCREENING 2","SCREENING","2012-11-28T13:00",-2,"30 MIN POST",1,"PT30M","LIST A RECALL 6"],
["CDISCPILOT01","FT","CDISC001",129,"AVL0210","AVL02-List A Word 10","AVLT-REY","FORM 1","NOT RECALLED","NOT RECALLED",null,"Y",7,2,"SCREENING 2","SCREENING","2012-11-28T13:00",-2,"30 MIN POST",1,"PT30M","LIST A RECALL 6"],
["CDISCPILOT01","FT","CDISC001",130,"AVL0211","AVL02-List A Word 11","AVLT-REY","FORM 1","NOT RECALLED","NOT RECALLED",null,"Y",7,2,"SCREENING 2","SCREENING","2012-11-28T13:00",-2,"30 MIN POST",1,"PT30M","LIST A RECALL 6"],
["CDISCPILOT01","FT","CDISC001",131,"AVL0212","AVL02-List A Word 12","AVLT-REY","FORM 1","NOT RECALLED","NOT RECALLED",null,"Y",7,2,"SCREENING 2","SCREENING","2012-11-28T13:00",-2,"30 MIN POST",1,"PT30M","LIST A RECALL 6"],
["CDISCPILOT01","FT","CDISC001",132,"AVL0213","AVL02-List A Word 13","AVLT-REY","FORM 1","RECALLED","RECALLED",null,"Y",7,2,"SCREENING 2","SCREENING","2012-11-28T13:00",-2,"30 MIN POST",1,"PT30M","LIST A RECALL 6"],
["CDISCPILOT01","FT","CDISC001",133,"AVL0214","AVL02-List A Word 14","AVLT-REY","FORM 1","NOT RECALLED","NOT RECALLED",null,"Y",7,2,"SCREENING 2","SCREENING","2012-11-28T13:00",-2,"30 MIN POST",1,"PT30M","LIST A RECALL 6"],
["CDISCPILOT01","FT","CDISC001",134,"AVL0215","AVL02-List A Word 15","AVLT-REY","FORM 1","NOT RECALLED","NOT RECALLED",null,"Y",7,2,"SCREENING 2","SCREENING","2012-11-28T13:00",-2,"30 MIN POST",1,"PT30M","LIST A RECALL 6"],
["CDISCPILOT01","FT","CDISC001",135,"AVL0216","AVL02-List A Total","AVLT-REY","FORM 1","7","7",7,"Y",7,2,"SCREENING 2","SCREENING","2012-11-28T13:00",-2,"30 MIN POST",1,"PT30M","LIST A RECALL 6"],
["CDISCPILOT01","FT","CDISC001",136,"AVL0217","AVL02-List A Intrusions","AVLT-REY","FORM 1","0","0",0,"Y",7,2,"SCREENING 2","SCREENING","2012-11-28T13:00",-2,"30 MIN POST",1,"PT30M","LIST A RECALL 6"],
["CDISCPILOT01","FT","CDISC001",137,"AVL0201","AVL02-List A Word 1","AVLT-REY","FORM 1","RECALLED","RECALLED",null,null,1,8,"WEEK 8","TREATMENT","2013-01-23T12:00",55,null,null,null,null],
["CDISCPILOT01","FT","CDISC001",138,"AVL0202","AVL02-List A Word 2","AVLT-REY","FORM 1","NOT RECALLED","NOT RECALLED",null,null,1,8,"WEEK 8","TREATMENT","2013-01-23T12:00",55,null,null,null,null],
["CDISCPILOT01","FT","CDISC001",139,"AVL0203","AVL02-List A Word 3","AVLT-REY","FORM 1","NOT RECALLED","NOT RECALLED",null,null,1,8,"WEEK 8","TREATMENT","2013-01-23T12:00",55,null,null,null,null],
["CDISCPILOT01","FT","CDISC001",140,"AVL0204","AVL02-List A Word 4","AVLT-REY","FORM 1","RECALLED","RECALLED",null,null,1,8,"WEEK 8","TREATMENT","2013-01-23T12:00",55,null,null,null,null],
["CDISCPILOT01","FT","CDISC001",141,"AVL0205","AVL02-List A Word 5","AVLT-REY","FORM 1","RECALLED","RECALLED",null,null,1,8,"WEEK 8","TREATMENT","2013-01-23T12:00",55,null,null,null,null],
["CDISCPILOT01","FT","CDISC001",142,"AVL0206","AVL02-List A Word 6","AVLT-REY","FORM 1","RECALLED","RECALLED",null,null,1,8,"WEEK 8","TREATMENT","2013-01-23T12:00",55,null,null,null,null],
["CDISCPILOT01","FT","CDISC001",143,"AVL0207","AVL02-List A Word 7","AVLT-REY","FORM 1","RECALLED","RECALLED",null,null,1,8,"WEEK 8","TREATMENT","2013-01-23T12:00",55,null,null,null,null],
["CDISCPILOT01","FT","CDISC001",144,"AVL0208","AVL02-List A Word 8","AVLT-REY","FORM 1","NOT RECALLED","NOT RECALLED",null,null,1,8,"WEEK 8","TREATMENT","2013-01-23T12:00",55,null,null,null,null],
["CDISCPILOT01","FT","CDISC001",145,"AVL0209","AVL02-List A Word 9","AVLT-REY","FORM 1","NOT RECALLED","NOT RECALLED",null,null,1,8,"WEEK 8","TREATMENT","2013-01-23T12:00",55,null,null,null,null],
["CDISCPILOT01","FT","CDISC001",146,"AVL0210","AVL02-List A Word 10","AVLT-REY","FORM 1","NOT RECALLED","NOT RECALLED",null,null,1,8,"WEEK 8","TREATMENT","2013-01-23T12:00",55,null,null,null,null],
["CDISCPILOT01","FT","CDISC001",147,"AVL0211","AVL02-List A Word 11","AVLT-REY","FORM 1","NOT RECALLED","NOT RECALLED",null,null,1,8,"WEEK 8","TREATMENT","2013-01-23T12:00",55,null,null,null,null],
["CDISCPILOT01","FT","CDISC001",148,"AVL0212","AVL02-List A Word 12","AVLT-REY","FORM 1","NOT RECALLED","NOT RECALLED",null,null,1,8,"WEEK 8","TREATMENT","2013-01-23T12:00",55,null,null,null,null],
["CDISCPILOT01","FT","CDISC001",149,"AVL0213","AVL02-List A Word 13","AVLT-REY","FORM 1","NOT RECALLED","NOT RECALLED",null,null,1,8,"WEEK 8","TREATMENT","2013-01-23T12:00",55,null,null,null,null],
["CDISCPILOT01","FT","CDISC001",150,"AVL0214","AVL02-List A Word 14","AVLT-REY","FORM 1","NOT RECALLED","NOT RECALLED",null,null,1,8,"WEEK 8","TREATMENT","2013-01-23T12:00",55,null,null,null,null],
["CDISCPILOT01","FT","CDISC001",151,"AVL0215","AVL02-List A Word 15","AVLT-REY","FORM 1","NOT RECALLED","NOT RECALLED",null,null,1,8,"WEEK 8","TREATMENT","2013-01-23T12:00",55,null,null,null,null],
["CDISCPILOT01","FT","CDISC001",152,"AVL0216","AVL02-List A Total","AVLT-REY","FORM 1","5","5",5,null,1,8,"WEEK 8","TREATMENT","2013-01-23T12:00",55,null,null,null,null],
["CDISCPILOT01","FT","CDISC001",153,"AVL0217","AVL02-List A Intrusions","AVLT-REY","FORM 1","0","0",0,null,1,8,"WEEK 8","TREATMENT","2013-01-23T12:00",55,null,null,null,null],
["CDISCPILOT01","FT","CDISC001",154,"AVL0201","AVL02-List A Word 1","AVLT-REY","FORM 1","RECALLED","RECALLED",null,null,2,8,"WEEK 8","TREATMENT","2013-01-23T12:05",55,null,null,null,null],
["CDISCPILOT01","FT","CDISC001",155,"AVL0202","AVL02-List A Word 2","AVLT-REY","FORM 1","NOT RECALLED","NOT RECALLED",null,null,2,8,"WEEK 8","TREATMENT","2013-01-23T12:05",55,null,null,null,null],
["CDISCPILOT01","FT","CDISC001",156,"AVL0203","AVL02-List A Word 3","AVLT-REY","FORM 1","NOT RECALLED","NOT RECALLED",null,null,2,8,"WEEK 8","TREATMENT","2013-01-23T12:05",55,null,null,null,null],
["CDISCPILOT01","FT","CDISC001",157,"AVL0204","AVL02-List A Word 4","AVLT-REY","FORM 1","RECALLED","RECALLED",null,null,2,8,"WEEK 8","TREATMENT","2013-01-23T12:05",55,null,null,null,null],
["CDISCPILOT01","FT","CDISC001",158,"AVL0205","AVL02-List A Word 5","AVLT-REY","FORM 1","RECALLED","RECALLED",null,null,2,8,"WEEK 8","TREATMENT","2013-01-23T12:05",55,null,null,null,null],
["CDISCPILOT01","FT","CDISC001",159,"AVL0206","AVL02-List A Word 6","AVLT-REY","FORM 1","RECALLED","RECALLED",null,null,2,8,"WEEK 8","TREATMENT","2013-01-23T12:05",55,null,null,null,null],
["CDISCPILOT01","FT","CDISC001",160,"AVL0207","AVL02-List A Word 7","AVLT-REY","FORM 1","NOT RECALLED","NOT RECALLED",null,null,2,8,"WEEK 8","TREATMENT","2013-01-23T12:05",55,null,null,null,null],
["CDISCPILOT01","FT","CDISC001",161,"AVL0208","AVL02-List A Word 8","AVLT-REY","FORM 1","NOT RECALLED","NOT RECALLED",null,null,2,8,"WEEK 8","TREATMENT","2013-01-23T12:05",55,null,null,null,null],
["CDISCPILOT01","FT","CDISC001",162,"AVL0209","AVL02-List A Word 9","AVLT-REY","FORM 1","NOT RECALLED","NOT RECALLED",null,null,2,8,"WEEK 8","TREATMENT","2013-01-23T12:05",55,null,null,null,null],
["CDISCPILOT01","FT","CDISC001",163,"AVL0210","AVL02-List A Word 10","AVLT-REY","FORM 1","RECALLED","RECALLED",null,null,2,8,"WEEK 8","TREATMENT","2013-01-23T12:05",55,null,null,null,null],
["CDISCPILOT01","FT","CDISC001",164,"AVL0211","AVL02-List A Word 11","AVLT-REY","FORM 1","RECALLED","RECALLED",null,null,2,8,"WEEK 8","TREATMENT","2013-01-23T12:05",55,null,null,null,null],
["CDISCPILOT01","FT","CDISC001",165,"AVL0212","AVL02-List A Word 12","AVLT-REY","FORM 1","NOT RECALLED","NOT RECALLED",null,null,2,8,"WEEK 8","TREATMENT","2013-01-23T12:05",55,null,null,null,null],
["CDISCPILOT01","FT","CDISC001",166,"AVL0213","AVL02-List A Word 13","AVLT-REY","FORM 1","NOT RECALLED","NOT RECALLED",null,null,2,8,"WEEK 8","TREATMENT","2013-01-23T12:05",55,null,null,null,null],
["CDISCPILOT01","FT","CDISC001",167,"AVL0214","AVL02-List A Word 14","AVLT-REY","FORM 1","NOT RECALLED","NOT RECALLED",null,null,2,8,"WEEK 8","TREATMENT","2013-01-23T12:05",55,null,null,null,null],
["CDISCPILOT01","FT","CDISC001",168,"AVL0215","AVL02-List A Word 15","AVLT-REY","FORM 1","NOT RECALLED","NOT RECALLED",null,null,2,8,"WEEK 8","TREATMENT","2013-01-23T12:05",55,null,null,null,null],
["CDISCPILOT01","FT","CDISC001",169,"AVL0216","AVL02-List A Total","AVLT-REY","FORM 1","6","6",6,null,2,8,"WEEK 8","TREATMENT","2013-01-23T12:05",55,null,null,null,null],
["CDISCPILOT01","FT","CDISC001",170,"AVL0217","AVL02-List A Intrusions","AVLT-REY","FORM 1","0","0",0,null,2,8,"WEEK 8","TREATMENT","2013-01-23T12:05",55,null,null,null,null],
["CDISCPILOT01","FT","CDISC001",171,"AVL0201","AVL02-List A Word 1","AVLT-REY","FORM 1","RECALLED","RECALLED",null,null,3,8,"WEEK 8","TREATMENT","2013-01-23T12:10",55,null,null,null,null],
["CDISCPILOT01","FT","CDISC001",172,"AVL0202","AVL02-List A Word 2","AVLT-REY","FORM 1","NOT RECALLED","NOT RECALLED",null,null,3,8,"WEEK 8","TREATMENT","2013-01-23T12:10",55,null,null,null,null],
["CDISCPILOT01","FT","CDISC001",173,"AVL0203","AVL02-List A Word 3","AVLT-REY","FORM 1","RECALLED","RECALLED",null,null,3,8,"WEEK 8","TREATMENT","2013-01-23T12:10",55,null,null,null,null],
["CDISCPILOT01","FT","CDISC001",174,"AVL0204","AVL02-List A Word 4","AVLT-REY","FORM 1","RECALLED","RECALLED",null,null,3,8,"WEEK 8","TREATMENT","2013-01-23T12:10",55,null,null,null,null],
["CDISCPILOT01","FT","CDISC001",175,"AVL0205","AVL02-List A Word 5","AVLT-REY","FORM 1","RECALLED","RECALLED",null,null,3,8,"WEEK 8","TREATMENT","2013-01-23T12:10",55,null,null,null,null],
["CDISCPILOT01","FT","CDISC001",176,"AVL0206","AVL02-List A Word 6","AVLT-REY","FORM 1","RECALLED","RECALLED",null,null,3,8,"WEEK 8","TREATMENT","2013-01-23T12:10",55,null,null,null,null],
["CDISCPILOT01","FT","CDISC001",177,"AVL0207","AVL02-List A Word 7","AVLT-REY","FORM 1","RECALLED","RECALLED",null,null,3,8,"WEEK 8","TREATMENT","2013-01-23T12:10",55,null,null,null,null],
["CDISCPILOT01","FT","CDISC001",178,"AVL0208","AVL02-List A Word 8","AVLT-REY","FORM 1","NOT RECALLED","NOT RECALLED",null,null,3,8,"WEEK 8","TREATMENT","2013-01-23T12:10",55,null,null,null,null],
["CDISCPILOT01","FT","CDISC001",179,"AVL0209","AVL02-List A Word 9","AVLT-REY","FORM 1","NOT RECALLED","NOT RECALLED",null,null,3,8,"WEEK 8","TREATMENT","2013-01-23T12:10",55,null,null,null,null],
["CDISCPILOT01","FT","CDISC001",180,"AVL0210","AVL02-List A Word 10","AVLT-REY","FORM 1","RECALLED","RECALLED",null,null,3,8,"WEEK 8","TREATMENT","2013-01-23T12:10",55,null,null,null,null],
["CDISCPILOT01","FT","CDISC001",181,"AVL0211","AVL02-List A Word 11","AVLT-REY","FORM 1","RECALLED","RECALLED",null,null,3,8,"WEEK 8","TREATMENT","2013-01-23T12:10",55,null,null,null,null],
["CDISCPILOT01","FT","CDISC001",182,"AVL0212","AVL02-List A Word 12","AVLT-REY","FORM 1","NOT RECALLED","NOT RECALLED",null,null,3,8,"WEEK 8","TREATMENT","2013-01-23T12:10",55,null,null,null,null],
["CDISCPILOT01","FT","CDISC001",183,"AVL0213","AVL02-List A Word 13","AVLT-REY","FORM 1","NOT RECALLED","NOT RECALLED",null,null,3,8,"WEEK 8","TREATMENT","2013-01-23T12:10",55,null,null,null,null],
["CDISCPILOT01","FT","CDISC001",184,"AVL0214","AVL02-List A Word 14","AVLT-REY","FORM 1","NOT RECALLED","NOT RECALLED",null,null,3,8,"WEEK 8","TREATMENT","2013-01-23T12:10",55,null,null,null,null],
["CDISCPILOT01","FT","CDISC001",185,"AVL0215","AVL02-List A Word 15","AVLT-REY","FORM 1","NOT RECALLED","NOT RECALLED",null,null,3,8,"WEEK 8","TREATMENT","2013-01-23T12:10",55,null,null,null,null],
["CDISCPILOT01","FT","CDISC001",186,"AVL0216","AVL02-List A Total","AVLT-REY","FORM 1","8","8",8,null,3,8,"WEEK 8","TREATMENT","2013-01-23T12:10",55,null,null,null,null],
["CDISCPILOT01","FT","CDISC001",187,"AVL0217","AVL02-List A Intrusions","AVLT-REY","FORM 1","0","0",0,null,3,8,"WEEK 8","TREATMENT","2013-01-23T12:10",55,null,null,null,null],
["CDISCPILOT01","FT","CDISC001",188,"AVL0201","AVL02-List A Word 1","AVLT-REY","FORM 1","RECALLED","RECALLED",null,null,4,8,"WEEK 8","TREATMENT","2013-01-23T12:15",55,null,null,null,null],
["CDISCPILOT01","FT","CDISC001",189,"AVL0202","AVL02-List A Word 2","AVLT-REY","FORM 1","NOT RECALLED","NOT RECALLED",null,null,4,8,"WEEK 8","TREATMENT","2013-01-23T12:15",55,null,null,null,null],
["CDISCPILOT01","FT","CDISC001",190,"AVL0203","AVL02-List A Word 3","AVLT-REY","FORM 1","RECALLED","RECALLED",null,null,4,8,"WEEK 8","TREATMENT","2013-01-23T12:15",55,null,null,null,null],
["CDISCPILOT01","FT","CDISC001",191,"AVL0204","AVL02-List A Word 4","AVLT-REY","FORM 1","RECALLED","RECALLED",null,null,4,8,"WEEK 8","TREATMENT","2013-01-23T12:15",55,null,null,null,null],
["CDISCPILOT01","FT","CDISC001",192,"AVL0205","AVL02-List A Word 5","AVLT-REY","FORM 1","RECALLED","RECALLED",null,null,4,8,"WEEK 8","TREATMENT","2013-01-23T12:15",55,null,null,null,null],
["CDISCPILOT01","FT","CDISC001",193,"AVL0206","AVL02-List A Word 6","AVLT-REY","FORM 1","RECALLED","RECALLED",null,null,4,8,"WEEK 8","TREATMENT","2013-01-23T12:15",55,null,null,null,null],
["CDISCPILOT01","FT","CDISC001",194,"AVL0207","AVL02-List A Word 7","AVLT-REY","FORM 1","RECALLED","RECALLED",null,null,4,8,"WEEK 8","TREATMENT","2013-01-23T12:15",55,null,null,null,null],
["CDISCPILOT01","FT","CDISC001",195,"AVL0208","AVL02-List A Word 8","AVLT-REY","FORM 1","NOT RECALLED","NOT RECALLED",null,null,4,8,"WEEK 8","TREATMENT","2013-01-23T12:15",55,null,null,null,null],
["CDISCPILOT01","FT","CDISC001",196,"AVL0209","AVL02-List A Word 9","AVLT-REY","FORM 1","NOT RECALLED","NOT RECALLED",null,null,4,8,"WEEK 8","TREATMENT","2013-01-23T12:15",55,null,null,null,null],
["CDISCPILOT01","FT","CDISC001",197,"AVL0210","AVL02-List A Word 10","AVLT-REY","FORM 1","RECALLED","RECALLED",null,null,4,8,"WEEK 8","TREATMENT","2013-01-23T12:15",55,null,null,null,null],
["CDISCPILOT01","FT","CDISC001",198,"AVL0211","AVL02-List A Word 11","AVLT-REY","FORM 1","RECALLED","RECALLED",null,null,4,8,"WEEK 8","TREATMENT","2013-01-23T12:15",55,null,null,null,null],
["CDISCPILOT01","FT","CDISC001",199,"AVL0212","AVL02-List A Word 12","AVLT-REY","FORM 1","RECALLED","RECALLED",null,null,4,8,"WEEK 8","TREATMENT","2013-01-23T12:15",55,null,null,null,null],
["CDISCPILOT01","FT","CDISC001",200,"AVL0213","AVL02-List A Word 13","AVLT-REY","FORM 1","NOT RECALLED","NOT RECALLED",null,null,4,8,"WEEK 8","TREATMENT","2013-01-23T12:15",55,null,null,null,null],
["CDISCPILOT01","FT","CDISC001",201,"AVL0214","AVL02-List A Word 14","AVLT-REY","FORM 1","NOT RECALLED","NOT RECALLED",null,null,4,8,"WEEK 8","TREATMENT","2013-01-23T12:15",55,null,null,null,null],
["CDISCPILOT01","FT","CDISC001",202,"AVL0215","AVL02-List A Word 15","AVLT-REY","FORM 1","NOT RECALLED","NOT RECALLED",null,null,4,8,"WEEK 8","TREATMENT","2013-01-23T12:15",55,null,null,null,null],
["CDISCPILOT01","FT","CDISC001",203,"AVL0216","AVL02-List A Total","AVLT-REY","FORM 1","9","9",9,null,4,8,"WEEK 8","TREATMENT","2013-01-23T12:15",55,null,null,null,null],
["CDISCPILOT01","FT","CDISC001",204,"AVL0217","AVL02-List A Intrusions","AVLT-REY","FORM 1","0","0",0,null,4,8,"WEEK 8","TREATMENT","2013-01-23T12:15",55,null,null,null,null],
["CDISCPILOT01","FT","CDISC001",205,"AVL0201","AVL02-List A Word 1","AVLT-REY","FORM 1","RECALLED","RECALLED",null,null,5,8,"WEEK 8","TREATMENT","2013-01-23T12:20",55,null,null,null,null],
["CDISCPILOT01","FT","CDISC001",206,"AVL0202","AVL02-List A Word 2","AVLT-REY","FORM 1","NOT RECALLED","NOT RECALLED",null,null,5,8,"WEEK 8","TREATMENT","2013-01-23T12:20",55,null,null,null,null],
["CDISCPILOT01","FT","CDISC001",207,"AVL0203","AVL02-List A Word 3","AVLT-REY","FORM 1","RECALLED","RECALLED",null,null,5,8,"WEEK 8","TREATMENT","2013-01-23T12:20",55,null,null,null,null],
["CDISCPILOT01","FT","CDISC001",208,"AVL0204","AVL02-List A Word 4","AVLT-REY","FORM 1","RECALLED","RECALLED",null,null,5,8,"WEEK 8","TREATMENT","2013-01-23T12:20",55,null,null,null,null],
["CDISCPILOT01","FT","CDISC001",209,"AVL0205","AVL02-List A Word 5","AVLT-REY","FORM 1","RECALLED","RECALLED",null,null,5,8,"WEEK 8","TREATMENT","2013-01-23T12:20",55,null,null,null,null],
["CDISCPILOT01","FT","CDISC001",210,"AVL0206","AVL02-List A Word 6","AVLT-REY","FORM 1","RECALLED","RECALLED",null,null,5,8,"WEEK 8","TREATMENT","2013-01-23T12:20",55,null,null,null,null],
["CDISCPILOT01","FT","CDISC001",211,"AVL0207","AVL02-List A Word 7","AVLT-REY","FORM 1","RECALLED","RECALLED",null,null,5,8,"WEEK 8","TREATMENT","2013-01-23T12:20",55,null,null,null,null],
["CDISCPILOT01","FT","CDISC001",212,"AVL0208","AVL02-List A Word 8","AVLT-REY","FORM 1","NOT RECALLED","NOT RECALLED",null,null,5,8,"WEEK 8","TREATMENT","2013-01-23T12:20",55,null,null,null,null],
["CDISCPILOT01","FT","CDISC001",213,"AVL0209","AVL02-List A Word 9","AVLT-REY","FORM 1","NOT RECALLED","NOT RECALLED",null,null,5,8,"WEEK 8","TREATMENT","2013-01-23T12:20",55,null,null,null,null],
["CDISCPILOT01","FT","CDISC001",214,"AVL0210","AVL02-List A Word 10","AVLT-REY","FORM 1","RECALLED","RECALLED",null,null,5,8,"WEEK 8","TREATMENT","2013-01-23T12:20",55,null,null,null,null],
["CDISCPILOT01","FT","CDISC001",215,"AVL0211","AVL02-List A Word 11","AVLT-REY","FORM 1","RECALLED","RECALLED",null,null,5,8,"WEEK 8","TREATMENT","2013-01-23T12:20",55,null,null,null,null],
["CDISCPILOT01","FT","CDISC001",216,"AVL0212","AVL02-List A Word 12","AVLT-REY","FORM 1","RECALLED","RECALLED",null,null,5,8,"WEEK 8","TREATMENT","2013-01-23T12:20",55,null,null,null,null],
["CDISCPILOT01","FT","CDISC001",217,"AVL0213","AVL02-List A Word 13","AVLT-REY","FORM 1","NOT RECALLED","NOT RECALLED",null,null,5,8,"WEEK 8","TREATMENT","2013-01-23T12:20",55,null,null,null,null],
["CDISCPILOT01","FT","CDISC001",218,"AVL0214","AVL02-List A Word 14","AVLT-REY","FORM 1","NOT RECALLED","NOT RECALLED",null,null,5,8,"WEEK 8","TREATMENT","2013-01-23T12:20",55,null,null,null,null],
["CDISCPILOT01","FT","CDISC001",219,"AVL0215","AVL02-List A Word 15","AVLT-REY","FORM 1","NOT RECALLED","NOT RECALLED",null,null,5,8,"WEEK 8","TREATMENT","2013-01-23T12:20",55,null,null,null,null],
["CDISCPILOT01","FT","CDISC001",220,"AVL0216","AVL02-List A Total","AVLT-REY","FORM 1","9","9",9,null,5,8,"WEEK 8","TREATMENT","2013-01-23T12:20",55,null,null,null,null],
["CDISCPILOT01","FT","CDISC001",221,"AVL0217","AVL02-List A Intrusions","AVLT-REY","FORM 1","0","0",0,null,5,8,"WEEK 8","TREATMENT","2013-01-23T12:20",55,null,null,null,null],
["CDISCPILOT01","FT","CDISC001",222,"AVL0218","AVL02-List B Word 1","AVLT-REY","FORM 1","RECALLED","RECALLED",null,null,null,8,"WEEK 8","TREATMENT","2013-01-23T12:25",55,null,null,null,null],
["CDISCPILOT01","FT","CDISC001",223,"AVL0219","AVL02-List B Word 2","AVLT-REY","FORM 1","NOT RECALLED","NOT RECALLED",null,null,null,8,"WEEK 8","TREATMENT","2013-01-23T12:25",55,null,null,null,null],
["CDISCPILOT01","FT","CDISC001",224,"AVL0220","AVL02-List B Word 3","AVLT-REY","FORM 1","RECALLED","RECALLED",null,null,null,8,"WEEK 8","TREATMENT","2013-01-23T12:25",55,null,null,null,null],
["CDISCPILOT01","FT","CDISC001",225,"AVL0221","AVL02-List B Word 4","AVLT-REY","FORM 1","RECALLED","RECALLED",null,null,null,8,"WEEK 8","TREATMENT","2013-01-23T12:25",55,null,null,null,null],
["CDISCPILOT01","FT","CDISC001",226,"AVL0222","AVL02-List B Word 5","AVLT-REY","FORM 1","RECALLED","RECALLED",null,null,null,8,"WEEK 8","TREATMENT","2013-01-23T12:25",55,null,null,null,null],
["CDISCPILOT01","FT","CDISC001",227,"AVL0223","AVL02-List B Word 6","AVLT-REY","FORM 1","RECALLED","RECALLED",null,null,null,8,"WEEK 8","TREATMENT","2013-01-23T12:25",55,null,null,null,null],
["CDISCPILOT01","FT","CDISC001",228,"AVL0224","AVL02-List B Word 7","AVLT-REY","FORM 1","RECALLED","RECALLED",null,null,null,8,"WEEK 8","TREATMENT","2013-01-23T12:25",55,null,null,null,null],
["CDISCPILOT01","FT","CDISC001",229,"AVL0225","AVL02-List B Word 8","AVLT-REY","FORM 1","RECALLED","RECALLED",null,null,null,8,"WEEK 8","TREATMENT","2013-01-23T12:25",55,null,null,null,null],
["CDISCPILOT01","FT","CDISC001",230,"AVL0226","AVL02-List B Word 9","AVLT-REY","FORM 1","RECALLED","RECALLED",null,null,null,8,"WEEK 8","TREATMENT","2013-01-23T12:25",55,null,null,null,null],
["CDISCPILOT01","FT","CDISC001",231,"AVL0227","AVL02-List B Word 10","AVLT-REY","FORM 1","RECALLED","RECALLED",null,null,null,8,"WEEK 8","TREATMENT","2013-01-23T12:25",55,null,null,null,null],
["CDISCPILOT01","FT","CDISC001",232,"AVL0228","AVL02-List B Word 11","AVLT-REY","FORM 1","RECALLED","RECALLED",null,null,null,8,"WEEK 8","TREATMENT","2013-01-23T12:25",55,null,null,null,null],
["CDISCPILOT01","FT","CDISC001",233,"AVL0229","AVL02-List B Word 12","AVLT-REY","FORM 1","RECALLED","RECALLED",null,null,null,8,"WEEK 8","TREATMENT","2013-01-23T12:25",55,null,null,null,null],
["CDISCPILOT01","FT","CDISC001",234,"AVL0230","AVL02-List B Word 13","AVLT-REY","FORM 1","NOT RECALLED","NOT RECALLED",null,null,null,8,"WEEK 8","TREATMENT","2013-01-23T12:25",55,null,null,null,null],
["CDISCPILOT01","FT","CDISC001",235,"AVL0231","AVL02-List B Word 14","AVLT-REY","FORM 1","NOT RECALLED","NOT RECALLED",null,null,null,8,"WEEK 8","TREATMENT","2013-01-23T12:25",55,null,null,null,null],
["CDISCPILOT01","FT","CDISC001",236,"AVL0232","AVL02-List B Word 15","AVLT-REY","FORM 1","NOT RECALLED","NOT RECALLED",null,null,null,8,"WEEK 8","TREATMENT","2013-01-23T12:25",55,null,null,null,null],
["CDISCPILOT01","FT","CDISC001",237,"AVL0233","AVL02- List B Total","AVLT-REY","FORM 1","11","11",11,null,null,8,"WEEK 8","TREATMENT","2013-01-23T12:25",55,null,null,null,null],
["CDISCPILOT01","FT","CDISC001",238,"AVL0234","AVL02-List B Intrusions","AVLT-REY","FORM 1","0","0",0,null,null,8,"WEEK 8","TREATMENT","2013-01-23T12:25",55,null,null,null,null],
["CDISCPILOT01","FT","CDISC001",239,"AVL0201","AVL02-List A Word 1","AVLT-REY","FORM 1","RECALLED","RECALLED",null,null,6,8,"WEEK 8","TREATMENT","2013-01-23T12:30",55,null,null,null,null],
["CDISCPILOT01","FT","CDISC001",240,"AVL0202","AVL02-List A Word 2","AVLT-REY","FORM 1","NOT RECALLED","NOT RECALLED",null,null,6,8,"WEEK 8","TREATMENT","2013-01-23T12:30",55,null,null,null,null],
["CDISCPILOT01","FT","CDISC001",241,"AVL0203","AVL02-List A Word 3","AVLT-REY","FORM 1","RECALLED","RECALLED",null,null,6,8,"WEEK 8","TREATMENT","2013-01-23T12:30",55,null,null,null,null],
["CDISCPILOT01","FT","CDISC001",242,"AVL0204","AVL02-List A Word 4","AVLT-REY","FORM 1","RECALLED","RECALLED",null,null,6,8,"WEEK 8","TREATMENT","2013-01-23T12:30",55,null,null,null,null],
["CDISCPILOT01","FT","CDISC001",243,"AVL0205","AVL02-List A Word 5","AVLT-REY","FORM 1","RECALLED","RECALLED",null,null,6,8,"WEEK 8","TREATMENT","2013-01-23T12:30",55,null,null,null,null],
["CDISCPILOT01","FT","CDISC001",244,"AVL0206","AVL02-List A Word 6","AVLT-REY","FORM 1","RECALLED","RECALLED",null,null,6,8,"WEEK 8","TREATMENT","2013-01-23T12:30",55,null,null,null,null],
["CDISCPILOT01","FT","CDISC001",245,"AVL0207","AVL02-List A Word 7","AVLT-REY","FORM 1","RECALLED","RECALLED",null,null,6,8,"WEEK 8","TREATMENT","2013-01-23T12:30",55,null,null,null,null],
["CDISCPILOT01","FT","CDISC001",246,"AVL0208","AVL02-List A Word 8","AVLT-REY","FORM 1","RECALLED","RECALLED",null,null,6,8,"WEEK 8","TREATMENT","2013-01-23T12:30",55,null,null,null,null],
["CDISCPILOT01","FT","CDISC001",247,"AVL0209","AVL02-List A Word 9","AVLT-REY","FORM 1","RECALLED","RECALLED",null,null,6,8,"WEEK 8","TREATMENT","2013-01-23T12:30",55,null,null,null,null],
["CDISCPILOT01","FT","CDISC001",248,"AVL0210","AVL02-List A Word 10","AVLT-REY","FORM 1","RECALLED","RECALLED",null,null,6,8,"WEEK 8","TREATMENT","2013-01-23T12:30",55,null,null,null,null],
["CDISCPILOT01","FT","CDISC001",249,"AVL0211","AVL02-List A Word 11","AVLT-REY","FORM 1","RECALLED","RECALLED",null,null,6,8,"WEEK 8","TREATMENT","2013-01-23T12:30",55,null,null,null,null],
["CDISCPILOT01","FT","CDISC001",250,"AVL0212","AVL02-List A Word 12","AVLT-REY","FORM 1","RECALLED","RECALLED",null,null,6,8,"WEEK 8","TREATMENT","2013-01-23T12:30",55,null,null,null,null],
["CDISCPILOT01","FT","CDISC001",251,"AVL0213","AVL02-List A Word 13","AVLT-REY","FORM 1","NOT RECALLED","NOT RECALLED",null,null,6,8,"WEEK 8","TREATMENT","2013-01-23T12:30",55,null,null,null,null],
["CDISCPILOT01","FT","CDISC001",252,"AVL0214","AVL02-List A Word 14","AVLT-REY","FORM 1","NOT RECALLED","NOT RECALLED",null,null,6,8,"WEEK 8","TREATMENT","2013-01-23T12:30",55,null,null,null,null],
["CDISCPILOT01","FT","CDISC001",253,"AVL0215","AVL02-List A Word 15","AVLT-REY","FORM 1","NOT RECALLED","NOT RECALLED",null,null,6,8,"WEEK 8","TREATMENT","2013-01-23T12:30",55,null,null,null,null],
["CDISCPILOT01","FT","CDISC001",254,"AVL0216","AVL02-List A Total","AVLT-REY","FORM 1","11","11",11,null,6,8,"WEEK 8","TREATMENT","2013-01-23T12:30",55,null,null,null,null],
["CDISCPILOT01","FT","CDISC001",255,"AVL0217","AVL02-List A Intrusions","AVLT-REY","FORM 1","2","2",2,null,6,8,"WEEK 8","TREATMENT","2013-01-23T12:30",55,null,null,null,null],
["CDISCPILOT01","FT","CDISC001",256,"AVL0201","AVL02-List A Word 1","AVLT-REY","FORM 1","RECALLED","RECALLED",null,null,7,8,"WEEK 8","TREATMENT","2013-01-23T13:00",55,"30 MIN POST",1,"PT30M","LIST A RECALL 6"],
["CDISCPILOT01","FT","CDISC001",257,"AVL0202","AVL02-List A Word 2","AVLT-REY","FORM 1","NOT RECALLED","NOT RECALLED",null,null,7,8,"WEEK 8","TREATMENT","2013-01-23T13:00",55,"30 MIN POST",1,"PT30M","LIST A RECALL 6"],
["CDISCPILOT01","FT","CDISC001",258,"AVL0203","AVL02-List A Word 3","AVLT-REY","FORM 1","RECALLED","RECALLED",null,null,7,8,"WEEK 8","TREATMENT","2013-01-23T13:00",55,"30 MIN POST",1,"PT30M","LIST A RECALL 6"],
["CDISCPILOT01","FT","CDISC001",259,"AVL0204","AVL02-List A Word 4","AVLT-REY","FORM 1","RECALLED","RECALLED",null,null,7,8,"WEEK 8","TREATMENT","2013-01-23T13:00",55,"30 MIN POST",1,"PT30M","LIST A RECALL 6"],
["CDISCPILOT01","FT","CDISC001",260,"AVL0205","AVL02-List A Word 5","AVLT-REY","FORM 1","NOT RECALLED","NOT RECALLED",null,null,7,8,"WEEK 8","TREATMENT","2013-01-23T13:00",55,"30 MIN POST",1,"PT30M","LIST A RECALL 6"],
["CDISCPILOT01","FT","CDISC001",261,"AVL0206","AVL02-List A Word 6","AVLT-REY","FORM 1","RECALLED","RECALLED",null,null,7,8,"WEEK 8","TREATMENT","2013-01-23T13:00",55,"30 MIN POST",1,"PT30M","LIST A RECALL 6"],
["CDISCPILOT01","FT","CDISC001",262,"AVL0207","AVL02-List A Word 7","AVLT-REY","FORM 1","NOT RECALLED","NOT RECALLED",null,null,7,8,"WEEK 8","TREATMENT","2013-01-23T13:00",55,"30 MIN POST",1,"PT30M","LIST A RECALL 6"],
["CDISCPILOT01","FT","CDISC001",263,"AVL0208","AVL02-List A Word 8","AVLT-REY","FORM 1","NOT RECALLED","NOT RECALLED",null,null,7,8,"WEEK 8","TREATMENT","2013-01-23T13:00",55,"30 MIN POST",1,"PT30M","LIST A RECALL 6"],
["CDISCPILOT01","FT","CDISC001",264,"AVL0209","AVL02-List A Word 9","AVLT-REY","FORM 1","RECALLED","RECALLED",null,null,7,8,"WEEK 8","TREATMENT","2013-01-23T13:00",55,"30 MIN POST",1,"PT30M","LIST A RECALL 6"],
["CDISCPILOT01","FT","CDISC001",265,"AVL0210","AVL02-List A Word 10","AVLT-REY","FORM 1","RECALLED","RECALLED",null,null,7,8,"WEEK 8","TREATMENT","2013-01-23T13:00",55,"30 MIN POST",1,"PT30M","LIST A RECALL 6"],
["CDISCPILOT01","FT","CDISC001",266,"AVL0211","AVL02-List A Word 11","AVLT-REY","FORM 1","RECALLED","RECALLED",null,null,7,8,"WEEK 8","TREATMENT","2013-01-23T13:00",55,"30 MIN POST",1,"PT30M","LIST A RECALL 6"],
["CDISCPILOT01","FT","CDISC001",267,"AVL0212","AVL02-List A Word 12","AVLT-REY","FORM 1","RECALLED","RECALLED",null,null,7,8,"WEEK 8","TREATMENT","2013-01-23T13:00",55,"30 MIN POST",1,"PT30M","LIST A RECALL 6"],
["CDISCPILOT01","FT","CDISC001",268,"AVL0213","AVL02-List A Word 13","AVLT-REY","FORM 1","NOT RECALLED","NOT RECALLED",null,null,7,8,"WEEK 8","TREATMENT","2013-01-23T13:00",55,"30 MIN POST",1,"PT30M","LIST A RECALL 6"],
["CDISCPILOT01","FT","CDISC001",269,"AVL0214","AVL02-List A Word 14","AVLT-REY","FORM 1","NOT RECALLED","NOT RECALLED",null,null,7,8,"WEEK 8","TREATMENT","2013-01-23T13:00",55,"30 MIN POST",1,"PT30M","LIST A RECALL 6"],
["CDISCPILOT01","FT","CDISC001",270,"AVL0215","AVL02-List A Word 15","AVLT-REY","FORM 1","NOT RECALLED","NOT RECALLED",null,null,7,8,"WEEK 8","TREATMENT","2013-01-23T13:00",55,"30 MIN POST",1,"PT30M","LIST A RECALL 6"],
["CDISCPILOT01","FT","CDISC001",271,"AVL0216","AVL02-List A Total","AVLT-REY","FORM 1","8","8",8,null,7,8,"WEEK 8","TREATMENT","2013-01-23T13:00",55,"30 MIN POST",1,"PT30M","LIST A RECALL 6"],
["CDISCPILOT01","FT","CDISC001",272,"AVL0217","AVL02-List A Intrusions","AVLT-REY","FORM 1","1","1",1,null,7,8,"WEEK 8","TREATMENT","2013-01-23T13:00",55,"30 MIN POST",1,"PT30M","LIST A RECALL 6"],
["CDISCPILOT01","FT","CDISC001",273,"AVL0201","AVL02-List A Word 1","AVLT-REY","FORM 1","RECALLED","RECALLED",null,null,1,201,"EARLY DISCONTINUATION RETRIEVAL","TREATMENT","2013-05-20T12:00",172,null,null,null,null],
["CDISCPILOT01","FT","CDISC001",274,"AVL0202","AVL02-List A Word 2","AVLT-REY","FORM 1","NOT RECALLED","NOT RECALLED",null,null,1,201,"EARLY DISCONTINUATION RETRIEVAL","TREATMENT","2013-05-20T12:00",172,null,null,null,null],
["CDISCPILOT01","FT","CDISC001",275,"AVL0203","AVL02-List A Word 3","AVLT-REY","FORM 1","RECALLED","RECALLED",null,null,1,201,"EARLY DISCONTINUATION RETRIEVAL","TREATMENT","2013-05-20T12:00",172,null,null,null,null],
["CDISCPILOT01","FT","CDISC001",276,"AVL0204","AVL02-List A Word 4","AVLT-REY","FORM 1","RECALLED","RECALLED",null,null,1,201,"EARLY DISCONTINUATION RETRIEVAL","TREATMENT","2013-05-20T12:00",172,null,null,null,null],
["CDISCPILOT01","FT","CDISC001",277,"AVL0205","AVL02-List A Word 5","AVLT-REY","FORM 1","RECALLED","RECALLED",null,null,1,201,"EARLY DISCONTINUATION RETRIEVAL","TREATMENT","2013-05-20T12:00",172,null,null,null,null],
["CDISCPILOT01","FT","CDISC001",278,"AVL0206","AVL02-List A Word 6","AVLT-REY","FORM 1","RECALLED","RECALLED",null,null,1,201,"EARLY DISCONTINUATION RETRIEVAL","TREATMENT","2013-05-20T12:00",172,null,null,null,null],
["CDISCPILOT01","FT","CDISC001",279,"AVL0207","AVL02-List A Word 7","AVLT-REY","FORM 1","RECALLED","RECALLED",null,null,1,201,"EARLY DISCONTINUATION RETRIEVAL","TREATMENT","2013-05-20T12:00",172,null,null,null,null],
["CDISCPILOT01","FT","CDISC001",280,"AVL0208","AVL02-List A Word 8","AVLT-REY","FORM 1","NOT RECALLED","NOT RECALLED",null,null,1,201,"EARLY DISCONTINUATION RETRIEVAL","TREATMENT","2013-05-20T12:00",172,null,null,null,null],
["CDISCPILOT01","FT","CDISC001",281,"AVL0209","AVL02-List A Word 9","AVLT-REY","FORM 1","NOT RECALLED","NOT RECALLED",null,null,1,201,"EARLY DISCONTINUATION RETRIEVAL","TREATMENT","2013-05-20T12:00",172,null,null,null,null],
["CDISCPILOT01","FT","CDISC001",282,"AVL0210","AVL02-List A Word 10","AVLT-REY","FORM 1","RECALLED","RECALLED",null,null,1,201,"EARLY DISCONTINUATION RETRIEVAL","TREATMENT","2013-05-20T12:00",172,null,null,null,null],
["CDISCPILOT01","FT","CDISC001",283,"AVL0211","AVL02-List A Word 11","AVLT-REY","FORM 1","RECALLED","RECALLED",null,null,1,201,"EARLY DISCONTINUATION RETRIEVAL","TREATMENT","2013-05-20T12:00",172,null,null,null,null],
["CDISCPILOT01","FT","CDISC001",284,"AVL0212","AVL02-List A Word 12","AVLT-REY","FORM 1","RECALLED","RECALLED",null,null,1,201,"EARLY DISCONTINUATION RETRIEVAL","TREATMENT","2013-05-20T12:00",172,null,null,null,null],
["CDISCPILOT01","FT","CDISC001",285,"AVL0213","AVL02-List A Word 13","AVLT-REY","FORM 1","NOT RECALLED","NOT RECALLED",null,null,1,201,"EARLY DISCONTINUATION RETRIEVAL","TREATMENT","2013-05-20T12:00",172,null,null,null,null],
["CDISCPILOT01","FT","CDISC001",286,"AVL0214","AVL02-List A Word 14","AVLT-REY","FORM 1","NOT RECALLED","NOT RECALLED",null,null,1,201,"EARLY DISCONTINUATION RETRIEVAL","TREATMENT","2013-05-20T12:00",172,null,null,null,null],
["CDISCPILOT01","FT","CDISC001",287,"AVL0215","AVL02-List A Word 15","AVLT-REY","FORM 1","NOT RECALLED","NOT RECALLED",null,null,1,201,"EARLY DISCONTINUATION RETRIEVAL","TREATMENT","2013-05-20T12:00",172,null,null,null,null],
["CDISCPILOT01","FT","CDISC001",288,"AVL0216","AVL02-List A Total","AVLT-REY","FORM 1","9","9",9,null,1,201,"EARLY DISCONTINUATION RETRIEVAL","TREATMENT","2013-05-20T12:00",172,null,null,null,null],
["CDISCPILOT01","FT","CDISC001",289,"AVL0217","AVL02-List A Intrusions","AVLT-REY","FORM 1","1","1",1,null,1,201,"EARLY DISCONTINUATION RETRIEVAL","TREATMENT","2013-05-20T12:00",172,null,null,null,null],
["CDISCPILOT01","FT","CDISC001",290,"AVL0201","AVL02-List A Word 1","AVLT-REY","FORM 1","RECALLED","RECALLED",null,null,2,201,"EARLY DISCONTINUATION RETRIEVAL","TREATMENT","2013-05-20T12:05",172,null,null,null,null],
["CDISCPILOT01","FT","CDISC001",291,"AVL0202","AVL02-List A Word 2","AVLT-REY","FORM 1","NOT RECALLED","NOT RECALLED",null,null,2,201,"EARLY DISCONTINUATION RETRIEVAL","TREATMENT","2013-05-20T12:05",172,null,null,null,null],
["CDISCPILOT01","FT","CDISC001",292,"AVL0203","AVL02-List A Word 3","AVLT-REY","FORM 1","RECALLED","RECALLED",null,null,2,201,"EARLY DISCONTINUATION RETRIEVAL","TREATMENT","2013-05-20T12:05",172,null,null,null,null],
["CDISCPILOT01","FT","CDISC001",293,"AVL0204","AVL02-List A Word 4","AVLT-REY","FORM 1","RECALLED","RECALLED",null,null,2,201,"EARLY DISCONTINUATION RETRIEVAL","TREATMENT","2013-05-20T12:05",172,null,null,null,null],
["CDISCPILOT01","FT","CDISC001",294,"AVL0205","AVL02-List A Word 5","AVLT-REY","FORM 1","RECALLED","RECALLED",null,null,2,201,"EARLY DISCONTINUATION RETRIEVAL","TREATMENT","2013-05-20T12:05",172,null,null,null,null],
["CDISCPILOT01","FT","CDISC001",295,"AVL0206","AVL02-List A Word 6","AVLT-REY","FORM 1","RECALLED","RECALLED",null,null,2,201,"EARLY DISCONTINUATION RETRIEVAL","TREATMENT","2013-05-20T12:05",172,null,null,null,null],
["CDISCPILOT01","FT","CDISC001",296,"AVL0207","AVL02-List A Word 7","AVLT-REY","FORM 1","RECALLED","RECALLED",null,null,2,201,"EARLY DISCONTINUATION RETRIEVAL","TREATMENT","2013-05-20T12:05",172,null,null,null,null],
["CDISCPILOT01","FT","CDISC001",297,"AVL0208","AVL02-List A Word 8","AVLT-REY","FORM 1","NOT RECALLED","NOT RECALLED",null,null,2,201,"EARLY DISCONTINUATION RETRIEVAL","TREATMENT","2013-05-20T12:05",172,null,null,null,null],
["CDISCPILOT01","FT","CDISC001",298,"AVL0209","AVL02-List A Word 9","AVLT-REY","FORM 1","NOT RECALLED","NOT RECALLED",null,null,2,201,"EARLY DISCONTINUATION RETRIEVAL","TREATMENT","2013-05-20T12:05",172,null,null,null,null],
["CDISCPILOT01","FT","CDISC001",299,"AVL0210","AVL02-List A Word 10","AVLT-REY","FORM 1","RECALLED","RECALLED",null,null,2,201,"EARLY DISCONTINUATION RETRIEVAL","TREATMENT","2013-05-20T12:05",172,null,null,null,null],
["CDISCPILOT01","FT","CDISC001",300,"AVL0211","AVL02-List A Word 11","AVLT-REY","FORM 1","RECALLED","RECALLED",null,null,2,201,"EARLY DISCONTINUATION RETRIEVAL","TREATMENT","2013-05-20T12:05",172,null,null,null,null],
["CDISCPILOT01","FT","CDISC001",301,"AVL0212","AVL02-List A Word 12","AVLT-REY","FORM 1","RECALLED","RECALLED",null,null,2,201,"EARLY DISCONTINUATION RETRIEVAL","TREATMENT","2013-05-20T12:05",172,null,null,null,null],
["CDISCPILOT01","FT","CDISC001",302,"AVL0213","AVL02-List A Word 13","AVLT-REY","FORM 1","NOT RECALLED","NOT RECALLED",null,null,2,201,"EARLY DISCONTINUATION RETRIEVAL","TREATMENT","2013-05-20T12:05",172,null,null,null,null],
["CDISCPILOT01","FT","CDISC001",303,"AVL0214","AVL02-List A Word 14","AVLT-REY","FORM 1","NOT RECALLED","NOT RECALLED",null,null,2,201,"EARLY DISCONTINUATION RETRIEVAL","TREATMENT","2013-05-20T12:05",172,null,null,null,null],
["CDISCPILOT01","FT","CDISC001",304,"AVL0215","AVL02-List A Word 15","AVLT-REY","FORM 1","NOT RECALLED","NOT RECALLED",null,null,2,201,"EARLY DISCONTINUATION RETRIEVAL","TREATMENT","2013-05-20T12:05",172,null,null,null,null],
["CDISCPILOT01","FT","CDISC001",305,"AVL0216","AVL02-List A Total","AVLT-REY","FORM 1","9","9",9,null,2,201,"EARLY DISCONTINUATION RETRIEVAL","TREATMENT","2013-05-20T12:05",172,null,null,null,null],
["CDISCPILOT01","FT","CDISC001",306,"AVL0217","AVL02-List A Intrusions","AVLT-REY","FORM 1","1","1",1,null,2,201,"EARLY DISCONTINUATION RETRIEVAL","TREATMENT","2013-05-20T12:05",172,null,null,null,null],
["CDISCPILOT01","FT","CDISC001",307,"AVL0201","AVL02-List A Word 1","AVLT-REY","FORM 1","RECALLED","RECALLED",null,null,3,201,"EARLY DISCONTINUATION RETRIEVAL","TREATMENT","2013-05-20T12:10",172,null,null,null,null],
["CDISCPILOT01","FT","CDISC001",308,"AVL0202","AVL02-List A Word 2","AVLT-REY","FORM 1","NOT RECALLED","NOT RECALLED",null,null,3,201,"EARLY DISCONTINUATION RETRIEVAL","TREATMENT","2013-05-20T12:10",172,null,null,null,null],
["CDISCPILOT01","FT","CDISC001",309,"AVL0203","AVL02-List A Word 3","AVLT-REY","FORM 1","RECALLED","RECALLED",null,null,3,201,"EARLY DISCONTINUATION RETRIEVAL","TREATMENT","2013-05-20T12:10",172,null,null,null,null],
["CDISCPILOT01","FT","CDISC001",310,"AVL0204","AVL02-List A Word 4","AVLT-REY","FORM 1","RECALLED","RECALLED",null,null,3,201,"EARLY DISCONTINUATION RETRIEVAL","TREATMENT","2013-05-20T12:10",172,null,null,null,null],
["CDISCPILOT01","FT","CDISC001",311,"AVL0205","AVL02-List A Word 5","AVLT-REY","FORM 1","RECALLED","RECALLED",null,null,3,201,"EARLY DISCONTINUATION RETRIEVAL","TREATMENT","2013-05-20T12:10",172,null,null,null,null],
["CDISCPILOT01","FT","CDISC001",312,"AVL0206","AVL02-List A Word 6","AVLT-REY","FORM 1","RECALLED","RECALLED",null,null,3,201,"EARLY DISCONTINUATION RETRIEVAL","TREATMENT","2013-05-20T12:10",172,null,null,null,null],
["CDISCPILOT01","FT","CDISC001",313,"AVL0207","AVL02-List A Word 7","AVLT-REY","FORM 1","RECALLED","RECALLED",null,null,3,201,"EARLY DISCONTINUATION RETRIEVAL","TREATMENT","2013-05-20T12:10",172,null,null,null,null],
["CDISCPILOT01","FT","CDISC001",314,"AVL0208","AVL02-List A Word 8","AVLT-REY","FORM 1","RECALLED","RECALLED",null,null,3,201,"EARLY DISCONTINUATION RETRIEVAL","TREATMENT","2013-05-20T12:10",172,null,null,null,null],
["CDISCPILOT01","FT","CDISC001",315,"AVL0209","AVL02-List A Word 9","AVLT-REY","FORM 1","NOT RECALLED","NOT RECALLED",null,null,3,201,"EARLY DISCONTINUATION RETRIEVAL","TREATMENT","2013-05-20T12:10",172,null,null,null,null],
["CDISCPILOT01","FT","CDISC001",316,"AVL0210","AVL02-List A Word 10","AVLT-REY","FORM 1","RECALLED","RECALLED",null,null,3,201,"EARLY DISCONTINUATION RETRIEVAL","TREATMENT","2013-05-20T12:10",172,null,null,null,null],
["CDISCPILOT01","FT","CDISC001",317,"AVL0211","AVL02-List A Word 11","AVLT-REY","FORM 1","RECALLED","RECALLED",null,null,3,201,"EARLY DISCONTINUATION RETRIEVAL","TREATMENT","2013-05-20T12:10",172,null,null,null,null],
["CDISCPILOT01","FT","CDISC001",318,"AVL0212","AVL02-List A Word 12","AVLT-REY","FORM 1","RECALLED","RECALLED",null,null,3,201,"EARLY DISCONTINUATION RETRIEVAL","TREATMENT","2013-05-20T12:10",172,null,null,null,null],
["CDISCPILOT01","FT","CDISC001",319,"AVL0213","AVL02-List A Word 13","AVLT-REY","FORM 1","NOT RECALLED","NOT RECALLED",null,null,3,201,"EARLY DISCONTINUATION RETRIEVAL","TREATMENT","2013-05-20T12:10",172,null,null,null,null],
["CDISCPILOT01","FT","CDISC001",320,"AVL0214","AVL02-List A Word 14","AVLT-REY","FORM 1","NOT RECALLED","NOT RECALLED",null,null,3,201,"EARLY DISCONTINUATION RETRIEVAL","TREATMENT","2013-05-20T12:10",172,null,null,null,null],
["CDISCPILOT01","FT","CDISC001",321,"AVL0215","AVL02-List A Word 15","AVLT-REY","FORM 1","NOT RECALLED","NOT RECALLED",null,null,3,201,"EARLY DISCONTINUATION RETRIEVAL","TREATMENT","2013-05-20T12:10",172,null,null,null,null],
["CDISCPILOT01","FT","CDISC001",322,"AVL0216","AVL02-List A Total","AVLT-REY","FORM 1","10","10",10,null,3,201,"EARLY DISCONTINUATION RETRIEVAL","TREATMENT","2013-05-20T12:10",172,null,null,null,null],
["CDISCPILOT01","FT","CDISC001",323,"AVL0217","AVL02-List A Intrusions","AVLT-REY","FORM 1","2","2",2,null,3,201,"EARLY DISCONTINUATION RETRIEVAL","TREATMENT","2013-05-20T12:10",172,null,null,null,null],
["CDISCPILOT01","FT","CDISC001",324,"AVL0201","AVL02-List A Word 1","AVLT-REY","FORM 1","RECALLED","RECALLED",null,null,4,201,"EARLY DISCONTINUATION RETRIEVAL","TREATMENT","2013-05-20T12:15",172,null,null,null,null],
["CDISCPILOT01","FT","CDISC001",325,"AVL0202","AVL02-List A Word 2","AVLT-REY","FORM 1","NOT RECALLED","NOT RECALLED",null,null,4,201,"EARLY DISCONTINUATION RETRIEVAL","TREATMENT","2013-05-20T12:15",172,null,null,null,null],
["CDISCPILOT01","FT","CDISC001",326,"AVL0203","AVL02-List A Word 3","AVLT-REY","FORM 1","RECALLED","RECALLED",null,null,4,201,"EARLY DISCONTINUATION RETRIEVAL","TREATMENT","2013-05-20T12:15",172,null,null,null,null],
["CDISCPILOT01","FT","CDISC001",327,"AVL0204","AVL02-List A Word 4","AVLT-REY","FORM 1","RECALLED","RECALLED",null,null,4,201,"EARLY DISCONTINUATION RETRIEVAL","TREATMENT","2013-05-20T12:15",172,null,null,null,null],
["CDISCPILOT01","FT","CDISC001",328,"AVL0205","AVL02-List A Word 5","AVLT-REY","FORM 1","RECALLED","RECALLED",null,null,4,201,"EARLY DISCONTINUATION RETRIEVAL","TREATMENT","2013-05-20T12:15",172,null,null,null,null],
["CDISCPILOT01","FT","CDISC001",329,"AVL0206","AVL02-List A Word 6","AVLT-REY","FORM 1","RECALLED","RECALLED",null,null,4,201,"EARLY DISCONTINUATION RETRIEVAL","TREATMENT","2013-05-20T12:15",172,null,null,null,null],
["CDISCPILOT01","FT","CDISC001",330,"AVL0207","AVL02-List A Word 7","AVLT-REY","FORM 1","RECALLED","RECALLED",null,null,4,201,"EARLY DISCONTINUATION RETRIEVAL","TREATMENT","2013-05-20T12:15",172,null,null,null,null],
["CDISCPILOT01","FT","CDISC001",331,"AVL0208","AVL02-List A Word 8","AVLT-REY","FORM 1","RECALLED","RECALLED",null,null,4,201,"EARLY DISCONTINUATION RETRIEVAL","TREATMENT","2013-05-20T12:15",172,null,null,null,null],
["CDISCPILOT01","FT","CDISC001",332,"AVL0209","AVL02-List A Word 9","AVLT-REY","FORM 1","RECALLED","RECALLED",null,null,4,201,"EARLY DISCONTINUATION RETRIEVAL","TREATMENT","2013-05-20T12:15",172,null,null,null,null],
["CDISCPILOT01","FT","CDISC001",333,"AVL0210","AVL02-List A Word 10","AVLT-REY","FORM 1","RECALLED","RECALLED",null,null,4,201,"EARLY DISCONTINUATION RETRIEVAL","TREATMENT","2013-05-20T12:15",172,null,null,null,null],
["CDISCPILOT01","FT","CDISC001",334,"AVL0211","AVL02-List A Word 11","AVLT-REY","FORM 1","RECALLED","RECALLED",null,null,4,201,"EARLY DISCONTINUATION RETRIEVAL","TREATMENT","2013-05-20T12:15",172,null,null,null,null],
["CDISCPILOT01","FT","CDISC001",335,"AVL0212","AVL02-List A Word 12","AVLT-REY","FORM 1","RECALLED","RECALLED",null,null,4,201,"EARLY DISCONTINUATION RETRIEVAL","TREATMENT","2013-05-20T12:15",172,null,null,null,null],
["CDISCPILOT01","FT","CDISC001",336,"AVL0213","AVL02-List A Word 13","AVLT-REY","FORM 1","NOT RECALLED","NOT RECALLED",null,null,4,201,"EARLY DISCONTINUATION RETRIEVAL","TREATMENT","2013-05-20T12:15",172,null,null,null,null],
["CDISCPILOT01","FT","CDISC001",337,"AVL0214","AVL02-List A Word 14","AVLT-REY","FORM 1","NOT RECALLED","NOT RECALLED",null,null,4,201,"EARLY DISCONTINUATION RETRIEVAL","TREATMENT","2013-05-20T12:15",172,null,null,null,null],
["CDISCPILOT01","FT","CDISC001",338,"AVL0215","AVL02-List A Word 15","AVLT-REY","FORM 1","NOT RECALLED","NOT RECALLED",null,null,4,201,"EARLY DISCONTINUATION RETRIEVAL","TREATMENT","2013-05-20T12:15",172,null,null,null,null],
["CDISCPILOT01","FT","CDISC001",339,"AVL0216","AVL02-List A Total","AVLT-REY","FORM 1","11","11",11,null,4,201,"EARLY DISCONTINUATION RETRIEVAL","TREATMENT","2013-05-20T12:15",172,null,null,null,null],
["CDISCPILOT01","FT","CDISC001",340,"AVL0217","AVL02-List A Intrusions","AVLT-REY","FORM 1","2","2",2,null,4,201,"EARLY DISCONTINUATION RETRIEVAL","TREATMENT","2013-05-20T12:15",172,null,null,null,null],
["CDISCPILOT01","FT","CDISC001",341,"AVL0201","AVL02-List A Word 1","AVLT-REY","FORM 1","RECALLED","RECALLED",null,null,5,201,"EARLY DISCONTINUATION RETRIEVAL","TREATMENT","2013-05-20T12:20",172,null,null,null,null],
["CDISCPILOT01","FT","CDISC001",342,"AVL0202","AVL02-List A Word 2","AVLT-REY","FORM 1","NOT RECALLED","NOT RECALLED",null,null,5,201,"EARLY DISCONTINUATION RETRIEVAL","TREATMENT","2013-05-20T12:20",172,null,null,null,null],
["CDISCPILOT01","FT","CDISC001",343,"AVL0203","AVL02-List A Word 3","AVLT-REY","FORM 1","RECALLED","RECALLED",null,null,5,201,"EARLY DISCONTINUATION RETRIEVAL","TREATMENT","2013-05-20T12:20",172,null,null,null,null],
["CDISCPILOT01","FT","CDISC001",344,"AVL0204","AVL02-List A Word 4","AVLT-REY","FORM 1","RECALLED","RECALLED",null,null,5,201,"EARLY DISCONTINUATION RETRIEVAL","TREATMENT","2013-05-20T12:20",172,null,null,null,null],
["CDISCPILOT01","FT","CDISC001",345,"AVL0205","AVL02-List A Word 5","AVLT-REY","FORM 1","RECALLED","RECALLED",null,null,5,201,"EARLY DISCONTINUATION RETRIEVAL","TREATMENT","2013-05-20T12:20",172,null,null,null,null],
["CDISCPILOT01","FT","CDISC001",346,"AVL0206","AVL02-List A Word 6","AVLT-REY","FORM 1","RECALLED","RECALLED",null,null,5,201,"EARLY DISCONTINUATION RETRIEVAL","TREATMENT","2013-05-20T12:20",172,null,null,null,null],
["CDISCPILOT01","FT","CDISC001",347,"AVL0207","AVL02-List A Word 7","AVLT-REY","FORM 1","RECALLED","RECALLED",null,null,5,201,"EARLY DISCONTINUATION RETRIEVAL","TREATMENT","2013-05-20T12:20",172,null,null,null,null],
["CDISCPILOT01","FT","CDISC001",348,"AVL0208","AVL02-List A Word 8","AVLT-REY","FORM 1","RECALLED","RECALLED",null,null,5,201,"EARLY DISCONTINUATION RETRIEVAL","TREATMENT","2013-05-20T12:20",172,null,null,null,null],
["CDISCPILOT01","FT","CDISC001",349,"AVL0209","AVL02-List A Word 9","AVLT-REY","FORM 1","RECALLED","RECALLED",null,null,5,201,"EARLY DISCONTINUATION RETRIEVAL","TREATMENT","2013-05-20T12:20",172,null,null,null,null],
["CDISCPILOT01","FT","CDISC001",350,"AVL0210","AVL02-List A Word 10","AVLT-REY","FORM 1","RECALLED","RECALLED",null,null,5,201,"EARLY DISCONTINUATION RETRIEVAL","TREATMENT","2013-05-20T12:20",172,null,null,null,null],
["CDISCPILOT01","FT","CDISC001",351,"AVL0211","AVL02-List A Word 11","AVLT-REY","FORM 1","RECALLED","RECALLED",null,null,5,201,"EARLY DISCONTINUATION RETRIEVAL","TREATMENT","2013-05-20T12:20",172,null,null,null,null],
["CDISCPILOT01","FT","CDISC001",352,"AVL0212","AVL02-List A Word 12","AVLT-REY","FORM 1","RECALLED","RECALLED",null,null,5,201,"EARLY DISCONTINUATION RETRIEVAL","TREATMENT","2013-05-20T12:20",172,null,null,null,null],
["CDISCPILOT01","FT","CDISC001",353,"AVL0213","AVL02-List A Word 13","AVLT-REY","FORM 1","NOT RECALLED","NOT RECALLED",null,null,5,201,"EARLY DISCONTINUATION RETRIEVAL","TREATMENT","2013-05-20T12:20",172,null,null,null,null],
["CDISCPILOT01","FT","CDISC001",354,"AVL0214","AVL02-List A Word 14","AVLT-REY","FORM 1","NOT RECALLED","NOT RECALLED",null,null,5,201,"EARLY DISCONTINUATION RETRIEVAL","TREATMENT","2013-05-20T12:20",172,null,null,null,null],
["CDISCPILOT01","FT","CDISC001",355,"AVL0215","AVL02-List A Word 15","AVLT-REY","FORM 1","NOT RECALLED","NOT RECALLED",null,null,5,201,"EARLY DISCONTINUATION RETRIEVAL","TREATMENT","2013-05-20T12:20",172,null,null,null,null],
["CDISCPILOT01","FT","CDISC001",356,"AVL0216","AVL02-List A Total","AVLT-REY","FORM 1","11","11",11,null,5,201,"EARLY DISCONTINUATION RETRIEVAL","TREATMENT","2013-05-20T12:20",172,null,null,null,null],
["CDISCPILOT01","FT","CDISC001",357,"AVL0217","AVL02-List A Intrusions","AVLT-REY","FORM 1","2","2",2,null,5,201,"EARLY DISCONTINUATION RETRIEVAL","TREATMENT","2013-05-20T12:20",172,null,null,null,null],
["CDISCPILOT01","FT","CDISC001",358,"AVL0218","AVL02-List B Word 1","AVLT-REY","FORM 1","RECALLED","RECALLED",null,null,null,201,"EARLY DISCONTINUATION RETRIEVAL","TREATMENT","2013-05-20T12:25",172,null,null,null,null],
["CDISCPILOT01","FT","CDISC001",359,"AVL0219","AVL02-List B Word 2","AVLT-REY","FORM 1","RECALLED","RECALLED",null,null,null,201,"EARLY DISCONTINUATION RETRIEVAL","TREATMENT","2013-05-20T12:25",172,null,null,null,null],
["CDISCPILOT01","FT","CDISC001",360,"AVL0220","AVL02-List B Word 3","AVLT-REY","FORM 1","RECALLED","RECALLED",null,null,null,201,"EARLY DISCONTINUATION RETRIEVAL","TREATMENT","2013-05-20T12:25",172,null,null,null,null],
["CDISCPILOT01","FT","CDISC001",361,"AVL0221","AVL02-List B Word 4","AVLT-REY","FORM 1","RECALLED","RECALLED",null,null,null,201,"EARLY DISCONTINUATION RETRIEVAL","TREATMENT","2013-05-20T12:25",172,null,null,null,null],
["CDISCPILOT01","FT","CDISC001",362,"AVL0222","AVL02-List B Word 5","AVLT-REY","FORM 1","RECALLED","RECALLED",null,null,null,201,"EARLY DISCONTINUATION RETRIEVAL","TREATMENT","2013-05-20T12:25",172,null,null,null,null],
["CDISCPILOT01","FT","CDISC001",363,"AVL0223","AVL02-List B Word 6","AVLT-REY","FORM 1","RECALLED","RECALLED",null,null,null,201,"EARLY DISCONTINUATION RETRIEVAL","TREATMENT","2013-05-20T12:25",172,null,null,null,null],
["CDISCPILOT01","FT","CDISC001",364,"AVL0224","AVL02-List B Word 7","AVLT-REY","FORM 1","RECALLED","RECALLED",null,null,null,201,"EARLY DISCONTINUATION RETRIEVAL","TREATMENT","2013-05-20T12:25",172,null,null,null,null],
["CDISCPILOT01","FT","CDISC001",365,"AVL0225","AVL02-List B Word 8","AVLT-REY","FORM 1","RECALLED","RECALLED",null,null,null,201,"EARLY DISCONTINUATION RETRIEVAL","TREATMENT","2013-05-20T12:25",172,null,null,null,null],
["CDISCPILOT01","FT","CDISC001",366,"AVL0226","AVL02-List B Word 9","AVLT-REY","FORM 1","RECALLED","RECALLED",null,null,null,201,"EARLY DISCONTINUATION RETRIEVAL","TREATMENT","2013-05-20T12:25",172,null,null,null,null],
["CDISCPILOT01","FT","CDISC001",367,"AVL0227","AVL02-List B Word 10","AVLT-REY","FORM 1","NOT RECALLED","NOT RECALLED",null,null,null,201,"EARLY DISCONTINUATION RETRIEVAL","TREATMENT","2013-05-20T12:25",172,null,null,null,null],
["CDISCPILOT01","FT","CDISC001",368,"AVL0228","AVL02-List B Word 11","AVLT-REY","FORM 1","NOT RECALLED","NOT RECALLED",null,null,null,201,"EARLY DISCONTINUATION RETRIEVAL","TREATMENT","2013-05-20T12:25",172,null,null,null,null],
["CDISCPILOT01","FT","CDISC001",369,"AVL0229","AVL02-List B Word 12","AVLT-REY","FORM 1","NOT RECALLED","NOT RECALLED",null,null,null,201,"EARLY DISCONTINUATION RETRIEVAL","TREATMENT","2013-05-20T12:25",172,null,null,null,null],
["CDISCPILOT01","FT","CDISC001",370,"AVL0230","AVL02-List B Word 13","AVLT-REY","FORM 1","RECALLED","RECALLED",null,null,null,201,"EARLY DISCONTINUATION RETRIEVAL","TREATMENT","2013-05-20T12:25",172,null,null,null,null],
["CDISCPILOT01","FT","CDISC001",371,"AVL0231","AVL02-List B Word 14","AVLT-REY","FORM 1","RECALLED","RECALLED",null,null,null,201,"EARLY DISCONTINUATION RETRIEVAL","TREATMENT","2013-05-20T12:25",172,null,null,null,null],
["CDISCPILOT01","FT","CDISC001",372,"AVL0232","AVL02-List B Word 15","AVLT-REY","FORM 1","RECALLED","RECALLED",null,null,null,201,"EARLY DISCONTINUATION RETRIEVAL","TREATMENT","2013-05-20T12:25",172,null,null,null,null],
["CDISCPILOT01","FT","CDISC001",373,"AVL0233","AVL02- List B Total","AVLT-REY","FORM 1","12","12",12,null,null,201,"EARLY DISCONTINUATION RETRIEVAL","TREATMENT","2013-05-20T12:25",172,null,null,null,null],
["CDISCPILOT01","FT","CDISC001",374,"AVL0234","AVL02-List B Intrusions","AVLT-REY","FORM 1","0","0",0,null,null,201,"EARLY DISCONTINUATION RETRIEVAL","TREATMENT","2013-05-20T12:25",172,null,null,null,null],
["CDISCPILOT01","FT","CDISC001",375,"AVL0201","AVL02-List A Word 1","AVLT-REY","FORM 1","RECALLED","RECALLED",null,null,6,201,"EARLY DISCONTINUATION RETRIEVAL","TREATMENT","2013-05-20T12:30",172,null,null,null,null],
["CDISCPILOT01","FT","CDISC001",376,"AVL0202","AVL02-List A Word 2","AVLT-REY","FORM 1","NOT RECALLED","NOT RECALLED",null,null,6,201,"EARLY DISCONTINUATION RETRIEVAL","TREATMENT","2013-05-20T12:30",172,null,null,null,null],
["CDISCPILOT01","FT","CDISC001",377,"AVL0203","AVL02-List A Word 3","AVLT-REY","FORM 1","RECALLED","RECALLED",null,null,6,201,"EARLY DISCONTINUATION RETRIEVAL","TREATMENT","2013-05-20T12:30",172,null,null,null,null],
["CDISCPILOT01","FT","CDISC001",378,"AVL0204","AVL02-List A Word 4","AVLT-REY","FORM 1","RECALLED","RECALLED",null,null,6,201,"EARLY DISCONTINUATION RETRIEVAL","TREATMENT","2013-05-20T12:30",172,null,null,null,null],
["CDISCPILOT01","FT","CDISC001",379,"AVL0205","AVL02-List A Word 5","AVLT-REY","FORM 1","RECALLED","RECALLED",null,null,6,201,"EARLY DISCONTINUATION RETRIEVAL","TREATMENT","2013-05-20T12:30",172,null,null,null,null],
["CDISCPILOT01","FT","CDISC001",380,"AVL0206","AVL02-List A Word 6","AVLT-REY","FORM 1","RECALLED","RECALLED",null,null,6,201,"EARLY DISCONTINUATION RETRIEVAL","TREATMENT","2013-05-20T12:30",172,null,null,null,null],
["CDISCPILOT01","FT","CDISC001",381,"AVL0207","AVL02-List A Word 7","AVLT-REY","FORM 1","NOT RECALLED","NOT RECALLED",null,null,6,201,"EARLY DISCONTINUATION RETRIEVAL","TREATMENT","2013-05-20T12:30",172,null,null,null,null],
["CDISCPILOT01","FT","CDISC001",382,"AVL0208","AVL02-List A Word 8","AVLT-REY","FORM 1","RECALLED","RECALLED",null,null,6,201,"EARLY DISCONTINUATION RETRIEVAL","TREATMENT","2013-05-20T12:30",172,null,null,null,null],
["CDISCPILOT01","FT","CDISC001",383,"AVL0209","AVL02-List A Word 9","AVLT-REY","FORM 1","RECALLED","RECALLED",null,null,6,201,"EARLY DISCONTINUATION RETRIEVAL","TREATMENT","2013-05-20T12:30",172,null,null,null,null],
["CDISCPILOT01","FT","CDISC001",384,"AVL0210","AVL02-List A Word 10","AVLT-REY","FORM 1","RECALLED","RECALLED",null,null,6,201,"EARLY DISCONTINUATION RETRIEVAL","TREATMENT","2013-05-20T12:30",172,null,null,null,null],
["CDISCPILOT01","FT","CDISC001",385,"AVL0211","AVL02-List A Word 11","AVLT-REY","FORM 1","RECALLED","RECALLED",null,null,6,201,"EARLY DISCONTINUATION RETRIEVAL","TREATMENT","2013-05-20T12:30",172,null,null,null,null],
["CDISCPILOT01","FT","CDISC001",386,"AVL0212","AVL02-List A Word 12","AVLT-REY","FORM 1","RECALLED","RECALLED",null,null,6,201,"EARLY DISCONTINUATION RETRIEVAL","TREATMENT","2013-05-20T12:30",172,null,null,null,null],
["CDISCPILOT01","FT","CDISC001",387,"AVL0213","AVL02-List A Word 13","AVLT-REY","FORM 1","NOT RECALLED","NOT RECALLED",null,null,6,201,"EARLY DISCONTINUATION RETRIEVAL","TREATMENT","2013-05-20T12:30",172,null,null,null,null],
["CDISCPILOT01","FT","CDISC001",388,"AVL0214","AVL02-List A Word 14","AVLT-REY","FORM 1","NOT RECALLED","NOT RECALLED",null,null,6,201,"EARLY DISCONTINUATION RETRIEVAL","TREATMENT","2013-05-20T12:30",172,null,null,null,null],
["CDISCPILOT01","FT","CDISC001",389,"AVL0215","AVL02-List A Word 15","AVLT-REY","FORM 1","NOT RECALLED","NOT RECALLED",null,null,6,201,"EARLY DISCONTINUATION RETRIEVAL","TREATMENT","2013-05-20T12:30",172,null,null,null,null],
["CDISCPILOT01","FT","CDISC001",390,"AVL0216","AVL02-List A Total","AVLT-REY","FORM 1","10","10",10,null,6,201,"EARLY DISCONTINUATION RETRIEVAL","TREATMENT","2013-05-20T12:30",172,null,null,null,null],
["CDISCPILOT01","FT","CDISC001",391,"AVL0217","AVL02-List A Intrusions","AVLT-REY","FORM 1","2","2",2,null,6,201,"EARLY DISCONTINUATION RETRIEVAL","TREATMENT","2013-05-20T12:30",172,null,null,null,null],
["CDISCPILOT01","FT","CDISC001",392,"AVL0201","AVL02-List A Word 1","AVLT-REY","FORM 1","RECALLED","RECALLED",null,null,7,201,"EARLY DISCONTINUATION RETRIEVAL","TREATMENT","2013-05-20T13:00",172,"30 MIN POST",1,"PT30M","LIST A RECALL 6"],
["CDISCPILOT01","FT","CDISC001",393,"AVL0202","AVL02-List A Word 2","AVLT-REY","FORM 1","NOT RECALLED","NOT RECALLED",null,null,7,201,"EARLY DISCONTINUATION RETRIEVAL","TREATMENT","2013-05-20T13:00",172,"30 MIN POST",1,"PT30M","LIST A RECALL 6"],
["CDISCPILOT01","FT","CDISC001",394,"AVL0203","AVL02-List A Word 3","AVLT-REY","FORM 1","RECALLED","RECALLED",null,null,7,201,"EARLY DISCONTINUATION RETRIEVAL","TREATMENT","2013-05-20T13:00",172,"30 MIN POST",1,"PT30M","LIST A RECALL 6"],
["CDISCPILOT01","FT","CDISC001",395,"AVL0204","AVL02-List A Word 4","AVLT-REY","FORM 1","RECALLED","RECALLED",null,null,7,201,"EARLY DISCONTINUATION RETRIEVAL","TREATMENT","2013-05-20T13:00",172,"30 MIN POST",1,"PT30M","LIST A RECALL 6"],
["CDISCPILOT01","FT","CDISC001",396,"AVL0205","AVL02-List A Word 5","AVLT-REY","FORM 1","NOT RECALLED","NOT RECALLED",null,null,7,201,"EARLY DISCONTINUATION RETRIEVAL","TREATMENT","2013-05-20T13:00",172,"30 MIN POST",1,"PT30M","LIST A RECALL 6"],
["CDISCPILOT01","FT","CDISC001",397,"AVL0206","AVL02-List A Word 6","AVLT-REY","FORM 1","RECALLED","RECALLED",null,null,7,201,"EARLY DISCONTINUATION RETRIEVAL","TREATMENT","2013-05-20T13:00",172,"30 MIN POST",1,"PT30M","LIST A RECALL 6"],
["CDISCPILOT01","FT","CDISC001",398,"AVL0207","AVL02-List A Word 7","AVLT-REY","FORM 1","NOT RECALLED","NOT RECALLED",null,null,7,201,"EARLY DISCONTINUATION RETRIEVAL","TREATMENT","2013-05-20T13:00",172,"30 MIN POST",1,"PT30M","LIST A RECALL 6"],
["CDISCPILOT01","FT","CDISC001",399,"AVL0208","AVL02-List A Word 8","AVLT-REY","FORM 1","RECALLED","RECALLED",null,null,7,201,"EARLY DISCONTINUATION RETRIEVAL","TREATMENT","2013-05-20T13:00",172,"30 MIN POST",1,"PT30M","LIST A RECALL 6"],
["CDISCPILOT01","FT","CDISC001",400,"AVL0209","AVL02-List A Word 9","AVLT-REY","FORM 1","RECALLED","RECALLED",null,null,7,201,"EARLY DISCONTINUATION RETRIEVAL","TREATMENT","2013-05-20T13:00",172,"30 MIN POST",1,"PT30M","LIST A RECALL 6"],
["CDISCPILOT01","FT","CDISC001",401,"AVL0210","AVL02-List A Word 10","AVLT-REY","FORM 1","RECALLED","RECALLED",null,null,7,201,"EARLY DISCONTINUATION RETRIEVAL","TREATMENT","2013-05-20T13:00",172,"30 MIN POST",1,"PT30M","LIST A RECALL 6"],
["CDISCPILOT01","FT","CDISC001",402,"AVL0211","AVL02-List A Word 11","AVLT-REY","FORM 1","RECALLED","RECALLED",null,null,7,201,"EARLY DISCONTINUATION RETRIEVAL","TREATMENT","2013-05-20T13:00",172,"30 MIN POST",1,"PT30M","LIST A RECALL 6"],
["CDISCPILOT01","FT","CDISC001",403,"AVL0212","AVL02-List A Word 12","AVLT-REY","FORM 1","RECALLED","RECALLED",null,null,7,201,"EARLY DISCONTINUATION RETRIEVAL","TREATMENT","2013-05-20T13:00",172,"30 MIN POST",1,"PT30M","LIST A RECALL 6"],
["CDISCPILOT01","FT","CDISC001",404,"AVL0213","AVL02-List A Word 13","AVLT-REY","FORM 1","NOT RECALLED","NOT RECALLED",null,null,7,201,"EARLY DISCONTINUATION RETRIEVAL","TREATMENT","2013-05-20T13:00",172,"30 MIN POST",1,"PT30M","LIST A RECALL 6"],
["CDISCPILOT01","FT","CDISC001",405,"AVL0214","AVL02-List A Word 14","AVLT-REY","FORM 1","NOT RECALLED","NOT RECALLED",null,null,7,201,"EARLY DISCONTINUATION RETRIEVAL","TREATMENT","2013-05-20T13:00",172,"30 MIN POST",1,"PT30M","LIST A RECALL 6"],
["CDISCPILOT01","FT","CDISC001",406,"AVL0215","AVL02-List A Word 15","AVLT-REY","FORM 1","NOT RECALLED","NOT RECALLED",null,null,7,201,"EARLY DISCONTINUATION RETRIEVAL","TREATMENT","2013-05-20T13:00",172,"30 MIN POST",1,"PT30M","LIST A RECALL 6"],
["CDISCPILOT01","FT","CDISC001",407,"AVL0216","AVL02-List A Total","AVLT-REY","FORM 1","9","9",9,null,7,201,"EARLY DISCONTINUATION RETRIEVAL","TREATMENT","2013-05-20T13:00",172,"30 MIN POST",1,"PT30M","LIST A RECALL 6"],
["CDISCPILOT01","FT","CDISC001",408,"AVL0217","AVL02-List A Intrusions","AVLT-REY","FORM 1","1","1",1,null,7,201,"EARLY DISCONTINUATION RETRIEVAL","TREATMENT","2013-05-20T13:00",172,"30 MIN POST",1,"PT30M","LIST A RECALL 6"],
["CDISCPILOT01","FT","CDISC002",1,"AVL0201","AVL02-List A Word 1","AVLT-REY","FORM 1","RECALLED","RECALLED",null,"Y",1,2,"SCREENING 2","SCREENING","2012-11-14T12:00",-1,null,null,null,null],
["CDISCPILOT01","FT","CDISC002",2,"AVL0202","AVL02-List A Word 2","AVLT-REY","FORM 1","RECALLED","RECALLED",null,"Y",1,2,"SCREENING 2","SCREENING","2012-11-14T12:00",-1,null,null,null,null],
["CDISCPILOT01","FT","CDISC002",3,"AVL0203","AVL02-List A Word 3","AVLT-REY","FORM 1","RECALLED","RECALLED",null,"Y",1,2,"SCREENING 2","SCREENING","2012-11-14T12:00",-1,null,null,null,null],
["CDISCPILOT01","FT","CDISC002",4,"AVL0204","AVL02-List A Word 4","AVLT-REY","FORM 1","NOT RECALLED","NOT RECALLED",null,"Y",1,2,"SCREENING 2","SCREENING","2012-11-14T12:00",-1,null,null,null,null],
["CDISCPILOT01","FT","CDISC002",5,"AVL0205","AVL02-List A Word 5","AVLT-REY","FORM 1","NOT RECALLED","NOT RECALLED",null,"Y",1,2,"SCREENING 2","SCREENING","2012-11-14T12:00",-1,null,null,null,null],
["CDISCPILOT01","FT","CDISC002",6,"AVL0206","AVL02-List A Word 6","AVLT-REY","FORM 1","NOT RECALLED","NOT RECALLED",null,"Y",1,2,"SCREENING 2","SCREENING","2012-11-14T12:00",-1,null,null,null,null],
["CDISCPILOT01","FT","CDISC002",7,"AVL0207","AVL02-List A Word 7","AVLT-REY","FORM 1","RECALLED","RECALLED",null,"Y",1,2,"SCREENING 2","SCREENING","2012-11-14T12:00",-1,null,null,null,null],
["CDISCPILOT01","FT","CDISC002",8,"AVL0208","AVL02-List A Word 8","AVLT-REY","FORM 1","NOT RECALLED","NOT RECALLED",null,"Y",1,2,"SCREENING 2","SCREENING","2012-11-14T12:00",-1,null,null,null,null],
["CDISCPILOT01","FT","CDISC002",9,"AVL0209","AVL02-List A Word 9","AVLT-REY","FORM 1","NOT RECALLED","NOT RECALLED",null,"Y",1,2,"SCREENING 2","SCREENING","2012-11-14T12:00",-1,null,null,null,null],
["CDISCPILOT01","FT","CDISC002",10,"AVL0210","AVL02-List A Word 10","AVLT-REY","FORM 1","NOT RECALLED","NOT RECALLED",null,"Y",1,2,"SCREENING 2","SCREENING","2012-11-14T12:00",-1,null,null,null,null],
["CDISCPILOT01","FT","CDISC002",11,"AVL0211","AVL02-List A Word 11","AVLT-REY","FORM 1","NOT RECALLED","NOT RECALLED",null,"Y",1,2,"SCREENING 2","SCREENING","2012-11-14T12:00",-1,null,null,null,null],
["CDISCPILOT01","FT","CDISC002",12,"AVL0212","AVL02-List A Word 12","AVLT-REY","FORM 1","NOT RECALLED","NOT RECALLED",null,"Y",1,2,"SCREENING 2","SCREENING","2012-11-14T12:00",-1,null,null,null,null],
["CDISCPILOT01","FT","CDISC002",13,"AVL0213","AVL02-List A Word 13","AVLT-REY","FORM 1","NOT RECALLED","NOT RECALLED",null,"Y",1,2,"SCREENING 2","SCREENING","2012-11-14T12:00",-1,null,null,null,null],
["CDISCPILOT01","FT","CDISC002",14,"AVL0214","AVL02-List A Word 14","AVLT-REY","FORM 1","NOT RECALLED","NOT RECALLED",null,"Y",1,2,"SCREENING 2","SCREENING","2012-11-14T12:00",-1,null,null,null,null],
["CDISCPILOT01","FT","CDISC002",15,"AVL0215","AVL02-List A Word 15","AVLT-REY","FORM 1","NOT RECALLED","NOT RECALLED",null,"Y",1,2,"SCREENING 2","SCREENING","2012-11-14T12:00",-1,null,null,null,null],
["CDISCPILOT01","FT","CDISC002",16,"AVL0216","AVL02-List A Total","AVLT-REY","FORM 1","4","4",4,"Y",1,2,"SCREENING 2","SCREENING","2012-11-14T12:00",-1,null,null,null,null],
["CDISCPILOT01","FT","CDISC002",17,"AVL0217","AVL02-List A Intrusions","AVLT-REY","FORM 1","1","1",1,"Y",1,2,"SCREENING 2","SCREENING","2012-11-14T12:00",-1,null,null,null,null],
["CDISCPILOT01","FT","CDISC002",18,"AVL0201","AVL02-List A Word 1","AVLT-REY","FORM 1","RECALLED","RECALLED",null,"Y",2,2,"SCREENING 2","SCREENING","2012-11-14T12:05",-1,null,null,null,null],
["CDISCPILOT01","FT","CDISC002",19,"AVL0202","AVL02-List A Word 2","AVLT-REY","FORM 1","RECALLED","RECALLED",null,"Y",2,2,"SCREENING 2","SCREENING","2012-11-14T12:05",-1,null,null,null,null],
["CDISCPILOT01","FT","CDISC002",20,"AVL0203","AVL02-List A Word 3","AVLT-REY","FORM 1","RECALLED","RECALLED",null,"Y",2,2,"SCREENING 2","SCREENING","2012-11-14T12:05",-1,null,null,null,null],
["CDISCPILOT01","FT","CDISC002",21,"AVL0204","AVL02-List A Word 4","AVLT-REY","FORM 1","NOT RECALLED","NOT RECALLED",null,"Y",2,2,"SCREENING 2","SCREENING","2012-11-14T12:05",-1,null,null,null,null],
["CDISCPILOT01","FT","CDISC002",22,"AVL0205","AVL02-List A Word 5","AVLT-REY","FORM 1","NOT RECALLED","NOT RECALLED",null,"Y",2,2,"SCREENING 2","SCREENING","2012-11-14T12:05",-1,null,null,null,null],
["CDISCPILOT01","FT","CDISC002",23,"AVL0206","AVL02-List A Word 6","AVLT-REY","FORM 1","NOT RECALLED","NOT RECALLED",null,"Y",2,2,"SCREENING 2","SCREENING","2012-11-14T12:05",-1,null,null,null,null],
["CDISCPILOT01","FT","CDISC002",24,"AVL0207","AVL02-List A Word 7","AVLT-REY","FORM 1","RECALLED","RECALLED",null,"Y",2,2,"SCREENING 2","SCREENING","2012-11-14T12:05",-1,null,null,null,null],
["CDISCPILOT01","FT","CDISC002",25,"AVL0208","AVL02-List A Word 8","AVLT-REY","FORM 1","NOT RECALLED","NOT RECALLED",null,"Y",2,2,"SCREENING 2","SCREENING","2012-11-14T12:05",-1,null,null,null,null],
["CDISCPILOT01","FT","CDISC002",26,"AVL0209","AVL02-List A Word 9","AVLT-REY","FORM 1","NOT RECALLED","NOT RECALLED",null,"Y",2,2,"SCREENING 2","SCREENING","2012-11-14T12:05",-1,null,null,null,null],
["CDISCPILOT01","FT","CDISC002",27,"AVL0210","AVL02-List A Word 10","AVLT-REY","FORM 1","NOT RECALLED","NOT RECALLED",null,"Y",2,2,"SCREENING 2","SCREENING","2012-11-14T12:05",-1,null,null,null,null],
["CDISCPILOT01","FT","CDISC002",28,"AVL0211","AVL02-List A Word 11","AVLT-REY","FORM 1","NOT RECALLED","NOT RECALLED",null,"Y",2,2,"SCREENING 2","SCREENING","2012-11-14T12:05",-1,null,null,null,null],
["CDISCPILOT01","FT","CDISC002",29,"AVL0212","AVL02-List A Word 12","AVLT-REY","FORM 1","NOT RECALLED","NOT RECALLED",null,"Y",2,2,"SCREENING 2","SCREENING","2012-11-14T12:05",-1,null,null,null,null],
["CDISCPILOT01","FT","CDISC002",30,"AVL0213","AVL02-List A Word 13","AVLT-REY","FORM 1","NOT RECALLED","NOT RECALLED",null,"Y",2,2,"SCREENING 2","SCREENING","2012-11-14T12:05",-1,null,null,null,null],
["CDISCPILOT01","FT","CDISC002",31,"AVL0214","AVL02-List A Word 14","AVLT-REY","FORM 1","NOT RECALLED","NOT RECALLED",null,"Y",2,2,"SCREENING 2","SCREENING","2012-11-14T12:05",-1,null,null,null,null],
["CDISCPILOT01","FT","CDISC002",32,"AVL0215","AVL02-List A Word 15","AVLT-REY","FORM 1","NOT RECALLED","NOT RECALLED",null,"Y",2,2,"SCREENING 2","SCREENING","2012-11-14T12:05",-1,null,null,null,null],
["CDISCPILOT01","FT","CDISC002",33,"AVL0216","AVL02-List A Total","AVLT-REY","FORM 1","4","4",4,"Y",2,2,"SCREENING 2","SCREENING","2012-11-14T12:05",-1,null,null,null,null],
["CDISCPILOT01","FT","CDISC002",34,"AVL0217","AVL02-List A Intrusions","AVLT-REY","FORM 1","1","1",1,"Y",2,2,"SCREENING 2","SCREENING","2012-11-14T12:05",-1,null,null,null,null],
["CDISCPILOT01","FT","CDISC002",35,"AVL0201","AVL02-List A Word 1","AVLT-REY","FORM 1","RECALLED","RECALLED",null,"Y",3,2,"SCREENING 2","SCREENING","2012-11-14T12:10",-1,null,null,null,null],
["CDISCPILOT01","FT","CDISC002",36,"AVL0202","AVL02-List A Word 2","AVLT-REY","FORM 1","RECALLED","RECALLED",null,"Y",3,2,"SCREENING 2","SCREENING","2012-11-14T12:10",-1,null,null,null,null],
["CDISCPILOT01","FT","CDISC002",37,"AVL0203","AVL02-List A Word 3","AVLT-REY","FORM 1","RECALLED","RECALLED",null,"Y",3,2,"SCREENING 2","SCREENING","2012-11-14T12:10",-1,null,null,null,null],
["CDISCPILOT01","FT","CDISC002",38,"AVL0204","AVL02-List A Word 4","AVLT-REY","FORM 1","NOT RECALLED","NOT RECALLED",null,"Y",3,2,"SCREENING 2","SCREENING","2012-11-14T12:10",-1,null,null,null,null],
["CDISCPILOT01","FT","CDISC002",39,"AVL0205","AVL02-List A Word 5","AVLT-REY","FORM 1","RECALLED","RECALLED",null,"Y",3,2,"SCREENING 2","SCREENING","2012-11-14T12:10",-1,null,null,null,null],
["CDISCPILOT01","FT","CDISC002",40,"AVL0206","AVL02-List A Word 6","AVLT-REY","FORM 1","NOT RECALLED","NOT RECALLED",null,"Y",3,2,"SCREENING 2","SCREENING","2012-11-14T12:10",-1,null,null,null,null],
["CDISCPILOT01","FT","CDISC002",41,"AVL0207","AVL02-List A Word 7","AVLT-REY","FORM 1","RECALLED","RECALLED",null,"Y",3,2,"SCREENING 2","SCREENING","2012-11-14T12:10",-1,null,null,null,null],
["CDISCPILOT01","FT","CDISC002",42,"AVL0208","AVL02-List A Word 8","AVLT-REY","FORM 1","NOT RECALLED","NOT RECALLED",null,"Y",3,2,"SCREENING 2","SCREENING","2012-11-14T12:10",-1,null,null,null,null],
["CDISCPILOT01","FT","CDISC002",43,"AVL0209","AVL02-List A Word 9","AVLT-REY","FORM 1","NOT RECALLED","NOT RECALLED",null,"Y",3,2,"SCREENING 2","SCREENING","2012-11-14T12:10",-1,null,null,null,null],
["CDISCPILOT01","FT","CDISC002",44,"AVL0210","AVL02-List A Word 10","AVLT-REY","FORM 1","NOT RECALLED","NOT RECALLED",null,"Y",3,2,"SCREENING 2","SCREENING","2012-11-14T12:10",-1,null,null,null,null],
["CDISCPILOT01","FT","CDISC002",45,"AVL0211","AVL02-List A Word 11","AVLT-REY","FORM 1","NOT RECALLED","NOT RECALLED",null,"Y",3,2,"SCREENING 2","SCREENING","2012-11-14T12:10",-1,null,null,null,null],
["CDISCPILOT01","FT","CDISC002",46,"AVL0212","AVL02-List A Word 12","AVLT-REY","FORM 1","NOT RECALLED","NOT RECALLED",null,"Y",3,2,"SCREENING 2","SCREENING","2012-11-14T12:10",-1,null,null,null,null],
["CDISCPILOT01","FT","CDISC002",47,"AVL0213","AVL02-List A Word 13","AVLT-REY","FORM 1","NOT RECALLED","NOT RECALLED",null,"Y",3,2,"SCREENING 2","SCREENING","2012-11-14T12:10",-1,null,null,null,null],
["CDISCPILOT01","FT","CDISC002",48,"AVL0214","AVL02-List A Word 14","AVLT-REY","FORM 1","NOT RECALLED","NOT RECALLED",null,"Y",3,2,"SCREENING 2","SCREENING","2012-11-14T12:10",-1,null,null,null,null],
["CDISCPILOT01","FT","CDISC002",49,"AVL0215","AVL02-List A Word 15","AVLT-REY","FORM 1","NOT RECALLED","NOT RECALLED",null,"Y",3,2,"SCREENING 2","SCREENING","2012-11-14T12:10",-1,null,null,null,null],
["CDISCPILOT01","FT","CDISC002",50,"AVL0216","AVL02-List A Total","AVLT-REY","FORM 1","5","5",5,"Y",3,2,"SCREENING 2","SCREENING","2012-11-14T12:10",-1,null,null,null,null],
["CDISCPILOT01","FT","CDISC002",51,"AVL0217","AVL02-List A Intrusions","AVLT-REY","FORM 1","1","1",1,"Y",3,2,"SCREENING 2","SCREENING","2012-11-14T12:10",-1,null,null,null,null],
["CDISCPILOT01","FT","CDISC002",52,"AVL0201","AVL02-List A Word 1","AVLT-REY","FORM 1","RECALLED","RECALLED",null,"Y",4,2,"SCREENING 2","SCREENING","2012-11-14T12:15",-1,null,null,null,null],
["CDISCPILOT01","FT","CDISC002",53,"AVL0202","AVL02-List A Word 2","AVLT-REY","FORM 1","RECALLED","RECALLED",null,"Y",4,2,"SCREENING 2","SCREENING","2012-11-14T12:15",-1,null,null,null,null],
["CDISCPILOT01","FT","CDISC002",54,"AVL0203","AVL02-List A Word 3","AVLT-REY","FORM 1","RECALLED","RECALLED",null,"Y",4,2,"SCREENING 2","SCREENING","2012-11-14T12:15",-1,null,null,null,null],
["CDISCPILOT01","FT","CDISC002",55,"AVL0204","AVL02-List A Word 4","AVLT-REY","FORM 1","NOT RECALLED","NOT RECALLED",null,"Y",4,2,"SCREENING 2","SCREENING","2012-11-14T12:15",-1,null,null,null,null],
["CDISCPILOT01","FT","CDISC002",56,"AVL0205","AVL02-List A Word 5","AVLT-REY","FORM 1","RECALLED","RECALLED",null,"Y",4,2,"SCREENING 2","SCREENING","2012-11-14T12:15",-1,null,null,null,null],
["CDISCPILOT01","FT","CDISC002",57,"AVL0206","AVL02-List A Word 6","AVLT-REY","FORM 1","NOT RECALLED","NOT RECALLED",null,"Y",4,2,"SCREENING 2","SCREENING","2012-11-14T12:15",-1,null,null,null,null],
["CDISCPILOT01","FT","CDISC002",58,"AVL0207","AVL02-List A Word 7","AVLT-REY","FORM 1","NOT RECALLED","NOT RECALLED",null,"Y",4,2,"SCREENING 2","SCREENING","2012-11-14T12:15",-1,null,null,null,null],
["CDISCPILOT01","FT","CDISC002",59,"AVL0208","AVL02-List A Word 8","AVLT-REY","FORM 1","RECALLED","RECALLED",null,"Y",4,2,"SCREENING 2","SCREENING","2012-11-14T12:15",-1,null,null,null,null],
["CDISCPILOT01","FT","CDISC002",60,"AVL0209","AVL02-List A Word 9","AVLT-REY","FORM 1","NOT RECALLED","NOT RECALLED",null,"Y",4,2,"SCREENING 2","SCREENING","2012-11-14T12:15",-1,null,null,null,null],
["CDISCPILOT01","FT","CDISC002",61,"AVL0210","AVL02-List A Word 10","AVLT-REY","FORM 1","NOT RECALLED","NOT RECALLED",null,"Y",4,2,"SCREENING 2","SCREENING","2012-11-14T12:15",-1,null,null,null,null],
["CDISCPILOT01","FT","CDISC002",62,"AVL0211","AVL02-List A Word 11","AVLT-REY","FORM 1","NOT RECALLED","NOT RECALLED",null,"Y",4,2,"SCREENING 2","SCREENING","2012-11-14T12:15",-1,null,null,null,null],
["CDISCPILOT01","FT","CDISC002",63,"AVL0212","AVL02-List A Word 12","AVLT-REY","FORM 1","NOT RECALLED","NOT RECALLED",null,"Y",4,2,"SCREENING 2","SCREENING","2012-11-14T12:15",-1,null,null,null,null],
["CDISCPILOT01","FT","CDISC002",64,"AVL0213","AVL02-List A Word 13","AVLT-REY","FORM 1","NOT RECALLED","NOT RECALLED",null,"Y",4,2,"SCREENING 2","SCREENING","2012-11-14T12:15",-1,null,null,null,null],
["CDISCPILOT01","FT","CDISC002",65,"AVL0214","AVL02-List A Word 14","AVLT-REY","FORM 1","NOT RECALLED","NOT RECALLED",null,"Y",4,2,"SCREENING 2","SCREENING","2012-11-14T12:15",-1,null,null,null,null],
["CDISCPILOT01","FT","CDISC002",66,"AVL0215","AVL02-List A Word 15","AVLT-REY","FORM 1","NOT RECALLED","NOT RECALLED",null,"Y",4,2,"SCREENING 2","SCREENING","2012-11-14T12:15",-1,null,null,null,null],
["CDISCPILOT01","FT","CDISC002",67,"AVL0216","AVL02-List A Total","AVLT-REY","FORM 1","5","5",5,"Y",4,2,"SCREENING 2","SCREENING","2012-11-14T12:15",-1,null,null,null,null],
["CDISCPILOT01","FT","CDISC002",68,"AVL0217","AVL02-List A Intrusions","AVLT-REY","FORM 1","0","0",0,"Y",4,2,"SCREENING 2","SCREENING","2012-11-14T12:15",-1,null,null,null,null],
["CDISCPILOT01","FT","CDISC002",69,"AVL0201","AVL02-List A Word 1","AVLT-REY","FORM 1","RECALLED","RECALLED",null,"Y",5,2,"SCREENING 2","SCREENING","2012-11-14T12:20",-1,null,null,null,null],
["CDISCPILOT01","FT","CDISC002",70,"AVL0202","AVL02-List A Word 2","AVLT-REY","FORM 1","RECALLED","RECALLED",null,"Y",5,2,"SCREENING 2","SCREENING","2012-11-14T12:20",-1,null,null,null,null],
["CDISCPILOT01","FT","CDISC002",71,"AVL0203","AVL02-List A Word 3","AVLT-REY","FORM 1","RECALLED","RECALLED",null,"Y",5,2,"SCREENING 2","SCREENING","2012-11-14T12:20",-1,null,null,null,null],
["CDISCPILOT01","FT","CDISC002",72,"AVL0204","AVL02-List A Word 4","AVLT-REY","FORM 1","NOT RECALLED","NOT RECALLED",null,"Y",5,2,"SCREENING 2","SCREENING","2012-11-14T12:20",-1,null,null,null,null],
["CDISCPILOT01","FT","CDISC002",73,"AVL0205","AVL02-List A Word 5","AVLT-REY","FORM 1","RECALLED","RECALLED",null,"Y",5,2,"SCREENING 2","SCREENING","2012-11-14T12:20",-1,null,null,null,null],
["CDISCPILOT01","FT","CDISC002",74,"AVL0206","AVL02-List A Word 6","AVLT-REY","FORM 1","NOT RECALLED","NOT RECALLED",null,"Y",5,2,"SCREENING 2","SCREENING","2012-11-14T12:20",-1,null,null,null,null],
["CDISCPILOT01","FT","CDISC002",75,"AVL0207","AVL02-List A Word 7","AVLT-REY","FORM 1","NOT RECALLED","NOT RECALLED",null,"Y",5,2,"SCREENING 2","SCREENING","2012-11-14T12:20",-1,null,null,null,null],
["CDISCPILOT01","FT","CDISC002",76,"AVL0208","AVL02-List A Word 8","AVLT-REY","FORM 1","RECALLED","RECALLED",null,"Y",5,2,"SCREENING 2","SCREENING","2012-11-14T12:20",-1,null,null,null,null],
["CDISCPILOT01","FT","CDISC002",77,"AVL0209","AVL02-List A Word 9","AVLT-REY","FORM 1","NOT RECALLED","NOT RECALLED",null,"Y",5,2,"SCREENING 2","SCREENING","2012-11-14T12:20",-1,null,null,null,null],
["CDISCPILOT01","FT","CDISC002",78,"AVL0210","AVL02-List A Word 10","AVLT-REY","FORM 1","NOT RECALLED","NOT RECALLED",null,"Y",5,2,"SCREENING 2","SCREENING","2012-11-14T12:20",-1,null,null,null,null],
["CDISCPILOT01","FT","CDISC002",79,"AVL0211","AVL02-List A Word 11","AVLT-REY","FORM 1","NOT RECALLED","NOT RECALLED",null,"Y",5,2,"SCREENING 2","SCREENING","2012-11-14T12:20",-1,null,null,null,null],
["CDISCPILOT01","FT","CDISC002",80,"AVL0212","AVL02-List A Word 12","AVLT-REY","FORM 1","NOT RECALLED","NOT RECALLED",null,"Y",5,2,"SCREENING 2","SCREENING","2012-11-14T12:20",-1,null,null,null,null],
["CDISCPILOT01","FT","CDISC002",81,"AVL0213","AVL02-List A Word 13","AVLT-REY","FORM 1","NOT RECALLED","NOT RECALLED",null,"Y",5,2,"SCREENING 2","SCREENING","2012-11-14T12:20",-1,null,null,null,null],
["CDISCPILOT01","FT","CDISC002",82,"AVL0214","AVL02-List A Word 14","AVLT-REY","FORM 1","NOT RECALLED","NOT RECALLED",null,"Y",5,2,"SCREENING 2","SCREENING","2012-11-14T12:20",-1,null,null,null,null],
["CDISCPILOT01","FT","CDISC002",83,"AVL0215","AVL02-List A Word 15","AVLT-REY","FORM 1","NOT RECALLED","NOT RECALLED",null,"Y",5,2,"SCREENING 2","SCREENING","2012-11-14T12:20",-1,null,null,null,null],
["CDISCPILOT01","FT","CDISC002",84,"AVL0216","AVL02-List A Total","AVLT-REY","FORM 1","5","5",5,"Y",5,2,"SCREENING 2","SCREENING","2012-11-14T12:20",-1,null,null,null,null],
["CDISCPILOT01","FT","CDISC002",85,"AVL0217","AVL02-List A Intrusions","AVLT-REY","FORM 1","0","0",0,"Y",5,2,"SCREENING 2","SCREENING","2012-11-14T12:20",-1,null,null,null,null],
["CDISCPILOT01","FT","CDISC002",86,"AVL0218","AVL02-List B Word 1","AVLT-REY","FORM 1","RECALLED","RECALLED",null,"Y",null,2,"SCREENING 2","SCREENING","2012-11-14T12:25",-1,null,null,null,null],
["CDISCPILOT01","FT","CDISC002",87,"AVL0219","AVL02-List B Word 2","AVLT-REY","FORM 1","RECALLED","RECALLED",null,"Y",null,2,"SCREENING 2","SCREENING","2012-11-14T12:25",-1,null,null,null,null],
["CDISCPILOT01","FT","CDISC002",88,"AVL0220","AVL02-List B Word 3","AVLT-REY","FORM 1","RECALLED","RECALLED",null,"Y",null,2,"SCREENING 2","SCREENING","2012-11-14T12:25",-1,null,null,null,null],
["CDISCPILOT01","FT","CDISC002",89,"AVL0221","AVL02-List B Word 4","AVLT-REY","FORM 1","RECALLED","RECALLED",null,"Y",null,2,"SCREENING 2","SCREENING","2012-11-14T12:25",-1,null,null,null,null],
["CDISCPILOT01","FT","CDISC002",90,"AVL0222","AVL02-List B Word 5","AVLT-REY","FORM 1","NOT RECALLED","NOT RECALLED",null,"Y",null,2,"SCREENING 2","SCREENING","2012-11-14T12:25",-1,null,null,null,null],
["CDISCPILOT01","FT","CDISC002",91,"AVL0223","AVL02-List B Word 6","AVLT-REY","FORM 1","NOT RECALLED","NOT RECALLED",null,"Y",null,2,"SCREENING 2","SCREENING","2012-11-14T12:25",-1,null,null,null,null],
["CDISCPILOT01","FT","CDISC002",92,"AVL0224","AVL02-List B Word 7","AVLT-REY","FORM 1","NOT RECALLED","NOT RECALLED",null,"Y",null,2,"SCREENING 2","SCREENING","2012-11-14T12:25",-1,null,null,null,null],
["CDISCPILOT01","FT","CDISC002",93,"AVL0225","AVL02-List B Word 8","AVLT-REY","FORM 1","NOT RECALLED","NOT RECALLED",null,"Y",null,2,"SCREENING 2","SCREENING","2012-11-14T12:25",-1,null,null,null,null],
["CDISCPILOT01","FT","CDISC002",94,"AVL0226","AVL02-List B Word 9","AVLT-REY","FORM 1","NOT RECALLED","NOT RECALLED",null,"Y",null,2,"SCREENING 2","SCREENING","2012-11-14T12:25",-1,null,null,null,null],
["CDISCPILOT01","FT","CDISC002",95,"AVL0227","AVL02-List B Word 10","AVLT-REY","FORM 1","NOT RECALLED","NOT RECALLED",null,"Y",null,2,"SCREENING 2","SCREENING","2012-11-14T12:25",-1,null,null,null,null],
["CDISCPILOT01","FT","CDISC002",96,"AVL0228","AVL02-List B Word 11","AVLT-REY","FORM 1","NOT RECALLED","NOT RECALLED",null,"Y",null,2,"SCREENING 2","SCREENING","2012-11-14T12:25",-1,null,null,null,null],
["CDISCPILOT01","FT","CDISC002",97,"AVL0229","AVL02-List B Word 12","AVLT-REY","FORM 1","NOT RECALLED","NOT RECALLED",null,"Y",null,2,"SCREENING 2","SCREENING","2012-11-14T12:25",-1,null,null,null,null],
["CDISCPILOT01","FT","CDISC002",98,"AVL0230","AVL02-List B Word 13","AVLT-REY","FORM 1","NOT RECALLED","NOT RECALLED",null,"Y",null,2,"SCREENING 2","SCREENING","2012-11-14T12:25",-1,null,null,null,null],
["CDISCPILOT01","FT","CDISC002",99,"AVL0231","AVL02-List B Word 14","AVLT-REY","FORM 1","NOT RECALLED","NOT RECALLED",null,"Y",null,2,"SCREENING 2","SCREENING","2012-11-14T12:25",-1,null,null,null,null],
["CDISCPILOT01","FT","CDISC002",100,"AVL0232","AVL02-List B Word 15","AVLT-REY","FORM 1","NOT RECALLED","NOT RECALLED",null,"Y",null,2,"SCREENING 2","SCREENING","2012-11-14T12:25",-1,null,null,null,null],
["CDISCPILOT01","FT","CDISC002",101,"AVL0233","AVL02- List B Total","AVLT-REY","FORM 1","4","4",4,"Y",null,2,"SCREENING 2","SCREENING","2012-11-14T12:25",-1,null,null,null,null],
["CDISCPILOT01","FT","CDISC002",102,"AVL0234","AVL02-List B Intrusions","AVLT-REY","FORM 1","0","0",0,"Y",null,2,"SCREENING 2","SCREENING","2012-11-14T12:25",-1,null,null,null,null],
["CDISCPILOT01","FT","CDISC002",103,"AVL0201","AVL02-List A Word 1","AVLT-REY","FORM 1","RECALLED","RECALLED",null,"Y",6,2,"SCREENING 2","SCREENING","2012-11-14T12:30",-1,null,null,null,null],
["CDISCPILOT01","FT","CDISC002",104,"AVL0202","AVL02-List A Word 2","AVLT-REY","FORM 1","RECALLED","RECALLED",null,"Y",6,2,"SCREENING 2","SCREENING","2012-11-14T12:30",-1,null,null,null,null],
["CDISCPILOT01","FT","CDISC002",105,"AVL0203","AVL02-List A Word 3","AVLT-REY","FORM 1","RECALLED","RECALLED",null,"Y",6,2,"SCREENING 2","SCREENING","2012-11-14T12:30",-1,null,null,null,null],
["CDISCPILOT01","FT","CDISC002",106,"AVL0204","AVL02-List A Word 4","AVLT-REY","FORM 1","NOT RECALLED","NOT RECALLED",null,"Y",6,2,"SCREENING 2","SCREENING","2012-11-14T12:30",-1,null,null,null,null],
["CDISCPILOT01","FT","CDISC002",107,"AVL0205","AVL02-List A Word 5","AVLT-REY","FORM 1","RECALLED","RECALLED",null,"Y",6,2,"SCREENING 2","SCREENING","2012-11-14T12:30",-1,null,null,null,null],
["CDISCPILOT01","FT","CDISC002",108,"AVL0206","AVL02-List A Word 6","AVLT-REY","FORM 1","NOT RECALLED","NOT RECALLED",null,"Y",6,2,"SCREENING 2","SCREENING","2012-11-14T12:30",-1,null,null,null,null],
["CDISCPILOT01","FT","CDISC002",109,"AVL0207","AVL02-List A Word 7","AVLT-REY","FORM 1","NOT RECALLED","NOT RECALLED",null,"Y",6,2,"SCREENING 2","SCREENING","2012-11-14T12:30",-1,null,null,null,null],
["CDISCPILOT01","FT","CDISC002",110,"AVL0208","AVL02-List A Word 8","AVLT-REY","FORM 1","RECALLED","RECALLED",null,"Y",6,2,"SCREENING 2","SCREENING","2012-11-14T12:30",-1,null,null,null,null],
["CDISCPILOT01","FT","CDISC002",111,"AVL0209","AVL02-List A Word 9","AVLT-REY","FORM 1","NOT RECALLED","NOT RECALLED",null,"Y",6,2,"SCREENING 2","SCREENING","2012-11-14T12:30",-1,null,null,null,null],
["CDISCPILOT01","FT","CDISC002",112,"AVL0210","AVL02-List A Word 10","AVLT-REY","FORM 1","NOT RECALLED","NOT RECALLED",null,"Y",6,2,"SCREENING 2","SCREENING","2012-11-14T12:30",-1,null,null,null,null],
["CDISCPILOT01","FT","CDISC002",113,"AVL0211","AVL02-List A Word 11","AVLT-REY","FORM 1","NOT RECALLED","NOT RECALLED",null,"Y",6,2,"SCREENING 2","SCREENING","2012-11-14T12:30",-1,null,null,null,null],
["CDISCPILOT01","FT","CDISC002",114,"AVL0212","AVL02-List A Word 12","AVLT-REY","FORM 1","NOT RECALLED","NOT RECALLED",null,"Y",6,2,"SCREENING 2","SCREENING","2012-11-14T12:30",-1,null,null,null,null],
["CDISCPILOT01","FT","CDISC002",115,"AVL0213","AVL02-List A Word 13","AVLT-REY","FORM 1","NOT RECALLED","NOT RECALLED",null,"Y",6,2,"SCREENING 2","SCREENING","2012-11-14T12:30",-1,null,null,null,null],
["CDISCPILOT01","FT","CDISC002",116,"AVL0214","AVL02-List A Word 14","AVLT-REY","FORM 1","NOT RECALLED","NOT RECALLED",null,"Y",6,2,"SCREENING 2","SCREENING","2012-11-14T12:30",-1,null,null,null,null],
["CDISCPILOT01","FT","CDISC002",117,"AVL0215","AVL02-List A Word 15","AVLT-REY","FORM 1","NOT RECALLED","NOT RECALLED",null,"Y",6,2,"SCREENING 2","SCREENING","2012-11-14T12:30",-1,null,null,null,null],
["CDISCPILOT01","FT","CDISC002",118,"AVL0216","AVL02-List A Total","AVLT-REY","FORM 1","5","5",5,"Y",6,2,"SCREENING 2","SCREENING","2012-11-14T12:30",-1,null,null,null,null],
["CDISCPILOT01","FT","CDISC002",119,"AVL0217","AVL02-List A Intrusions","AVLT-REY","FORM 1","0","0",0,"Y",6,2,"SCREENING 2","SCREENING","2012-11-14T12:30",-1,null,null,null,null],
["CDISCPILOT01","FT","CDISC002",120,"AVL0201","AVL02-List A Word 1","AVLT-REY","FORM 1","RECALLED","RECALLED",null,"Y",7,2,"SCREENING 2","SCREENING","2012-11-14T13:00",-1,"30 MIN POST",1,"PT30M","LIST A RECALL 6"],
["CDISCPILOT01","FT","CDISC002",121,"AVL0202","AVL02-List A Word 2","AVLT-REY","FORM 1","NOT RECALLED","NOT RECALLED",null,"Y",7,2,"SCREENING 2","SCREENING","2012-11-14T13:00",-1,"30 MIN POST",1,"PT30M","LIST A RECALL 6"],
["CDISCPILOT01","FT","CDISC002",122,"AVL0203","AVL02-List A Word 3","AVLT-REY","FORM 1","NOT RECALLED","NOT RECALLED",null,"Y",7,2,"SCREENING 2","SCREENING","2012-11-14T13:00",-1,"30 MIN POST",1,"PT30M","LIST A RECALL 6"],
["CDISCPILOT01","FT","CDISC002",123,"AVL0204","AVL02-List A Word 4","AVLT-REY","FORM 1","NOT RECALLED","NOT RECALLED",null,"Y",7,2,"SCREENING 2","SCREENING","2012-11-14T13:00",-1,"30 MIN POST",1,"PT30M","LIST A RECALL 6"],
["CDISCPILOT01","FT","CDISC002",124,"AVL0205","AVL02-List A Word 5","AVLT-REY","FORM 1","RECALLED","RECALLED",null,"Y",7,2,"SCREENING 2","SCREENING","2012-11-14T13:00",-1,"30 MIN POST",1,"PT30M","LIST A RECALL 6"],
["CDISCPILOT01","FT","CDISC002",125,"AVL0206","AVL02-List A Word 6","AVLT-REY","FORM 1","NOT RECALLED","NOT RECALLED",null,"Y",7,2,"SCREENING 2","SCREENING","2012-11-14T13:00",-1,"30 MIN POST",1,"PT30M","LIST A RECALL 6"],
["CDISCPILOT01","FT","CDISC002",126,"AVL0207","AVL02-List A Word 7","AVLT-REY","FORM 1","NOT RECALLED","NOT RECALLED",null,"Y",7,2,"SCREENING 2","SCREENING","2012-11-14T13:00",-1,"30 MIN POST",1,"PT30M","LIST A RECALL 6"],
["CDISCPILOT01","FT","CDISC002",127,"AVL0208","AVL02-List A Word 8","AVLT-REY","FORM 1","RECALLED","RECALLED",null,"Y",7,2,"SCREENING 2","SCREENING","2012-11-14T13:00",-1,"30 MIN POST",1,"PT30M","LIST A RECALL 6"],
["CDISCPILOT01","FT","CDISC002",128,"AVL0209","AVL02-List A Word 9","AVLT-REY","FORM 1","NOT RECALLED","NOT RECALLED",null,"Y",7,2,"SCREENING 2","SCREENING","2012-11-14T13:00",-1,"30 MIN POST",1,"PT30M","LIST A RECALL 6"],
["CDISCPILOT01","FT","CDISC002",129,"AVL0210","AVL02-List A Word 10","AVLT-REY","FORM 1","NOT RECALLED","NOT RECALLED",null,"Y",7,2,"SCREENING 2","SCREENING","2012-11-14T13:00",-1,"30 MIN POST",1,"PT30M","LIST A RECALL 6"],
["CDISCPILOT01","FT","CDISC002",130,"AVL0211","AVL02-List A Word 11","AVLT-REY","FORM 1","NOT RECALLED","NOT RECALLED",null,"Y",7,2,"SCREENING 2","SCREENING","2012-11-14T13:00",-1,"30 MIN POST",1,"PT30M","LIST A RECALL 6"],
["CDISCPILOT01","FT","CDISC002",131,"AVL0212","AVL02-List A Word 12","AVLT-REY","FORM 1","NOT RECALLED","NOT RECALLED",null,"Y",7,2,"SCREENING 2","SCREENING","2012-11-14T13:00",-1,"30 MIN POST",1,"PT30M","LIST A RECALL 6"],
["CDISCPILOT01","FT","CDISC002",132,"AVL0213","AVL02-List A Word 13","AVLT-REY","FORM 1","NOT RECALLED","NOT RECALLED",null,"Y",7,2,"SCREENING 2","SCREENING","2012-11-14T13:00",-1,"30 MIN POST",1,"PT30M","LIST A RECALL 6"],
["CDISCPILOT01","FT","CDISC002",133,"AVL0214","AVL02-List A Word 14","AVLT-REY","FORM 1","NOT RECALLED","NOT RECALLED",null,"Y",7,2,"SCREENING 2","SCREENING","2012-11-14T13:00",-1,"30 MIN POST",1,"PT30M","LIST A RECALL 6"],
["CDISCPILOT01","FT","CDISC002",134,"AVL0215","AVL02-List A Word 15","AVLT-REY","FORM 1","NOT RECALLED","NOT RECALLED",null,"Y",7,2,"SCREENING 2","SCREENING","2012-11-14T13:00",-1,"30 MIN POST",1,"PT30M","LIST A RECALL 6"],
["CDISCPILOT01","FT","CDISC002",135,"AVL0216","AVL02-List A Total","AVLT-REY","FORM 1","3","3",3,"Y",7,2,"SCREENING 2","SCREENING","2012-11-14T13:00",-1,"30 MIN POST",1,"PT30M","LIST A RECALL 6"],
["CDISCPILOT01","FT","CDISC002",136,"AVL0217","AVL02-List A Intrusions","AVLT-REY","FORM 1","0","0",0,"Y",7,2,"SCREENING 2","SCREENING","2012-11-14T13:00",-1,"30 MIN POST",1,"PT30M","LIST A RECALL 6"],
["CDISCPILOT01","FT","CDISC002",137,"AVL0201","AVL02-List A Word 1","AVLT-REY","FORM 1","RECALLED","RECALLED",null,null,1,8,"WEEK 8","TREATMENT","2013-01-08T12:00",55,null,null,null,null],
["CDISCPILOT01","FT","CDISC002",138,"AVL0202","AVL02-List A Word 2","AVLT-REY","FORM 1","RECALLED","RECALLED",null,null,1,8,"WEEK 8","TREATMENT","2013-01-08T12:00",55,null,null,null,null],
["CDISCPILOT01","FT","CDISC002",139,"AVL0203","AVL02-List A Word 3","AVLT-REY","FORM 1","RECALLED","RECALLED",null,null,1,8,"WEEK 8","TREATMENT","2013-01-08T12:00",55,null,null,null,null],
["CDISCPILOT01","FT","CDISC002",140,"AVL0204","AVL02-List A Word 4","AVLT-REY","FORM 1","NOT RECALLED","NOT RECALLED",null,null,1,8,"WEEK 8","TREATMENT","2013-01-08T12:00",55,null,null,null,null],
["CDISCPILOT01","FT","CDISC002",141,"AVL0205","AVL02-List A Word 5","AVLT-REY","FORM 1","NOT RECALLED","NOT RECALLED",null,null,1,8,"WEEK 8","TREATMENT","2013-01-08T12:00",55,null,null,null,null],
["CDISCPILOT01","FT","CDISC002",142,"AVL0206","AVL02-List A Word 6","AVLT-REY","FORM 1","NOT RECALLED","NOT RECALLED",null,null,1,8,"WEEK 8","TREATMENT","2013-01-08T12:00",55,null,null,null,null],
["CDISCPILOT01","FT","CDISC002",143,"AVL0207","AVL02-List A Word 7","AVLT-REY","FORM 1","RECALLED","RECALLED",null,null,1,8,"WEEK 8","TREATMENT","2013-01-08T12:00",55,null,null,null,null],
["CDISCPILOT01","FT","CDISC002",144,"AVL0208","AVL02-List A Word 8","AVLT-REY","FORM 1","NOT RECALLED","NOT RECALLED",null,null,1,8,"WEEK 8","TREATMENT","2013-01-08T12:00",55,null,null,null,null],
["CDISCPILOT01","FT","CDISC002",145,"AVL0209","AVL02-List A Word 9","AVLT-REY","FORM 1","NOT RECALLED","NOT RECALLED",null,null,1,8,"WEEK 8","TREATMENT","2013-01-08T12:00",55,null,null,null,null],
["CDISCPILOT01","FT","CDISC002",146,"AVL0210","AVL02-List A Word 10","AVLT-REY","FORM 1","NOT RECALLED","NOT RECALLED",null,null,1,8,"WEEK 8","TREATMENT","2013-01-08T12:00",55,null,null,null,null],
["CDISCPILOT01","FT","CDISC002",147,"AVL0211","AVL02-List A Word 11","AVLT-REY","FORM 1","NOT RECALLED","NOT RECALLED",null,null,1,8,"WEEK 8","TREATMENT","2013-01-08T12:00",55,null,null,null,null],
["CDISCPILOT01","FT","CDISC002",148,"AVL0212","AVL02-List A Word 12","AVLT-REY","FORM 1","NOT RECALLED","NOT RECALLED",null,null,1,8,"WEEK 8","TREATMENT","2013-01-08T12:00",55,null,null,null,null],
["CDISCPILOT01","FT","CDISC002",149,"AVL0213","AVL02-List A Word 13","AVLT-REY","FORM 1","NOT RECALLED","NOT RECALLED",null,null,1,8,"WEEK 8","TREATMENT","2013-01-08T12:00",55,null,null,null,null],
["CDISCPILOT01","FT","CDISC002",150,"AVL0214","AVL02-List A Word 14","AVLT-REY","FORM 1","NOT RECALLED","NOT RECALLED",null,null,1,8,"WEEK 8","TREATMENT","2013-01-08T12:00",55,null,null,null,null],
["CDISCPILOT01","FT","CDISC002",151,"AVL0215","AVL02-List A Word 15","AVLT-REY","FORM 1","NOT RECALLED","NOT RECALLED",null,null,1,8,"WEEK 8","TREATMENT","2013-01-08T12:00",55,null,null,null,null],
["CDISCPILOT01","FT","CDISC002",152,"AVL0216","AVL02-List A Total","AVLT-REY","FORM 1","4","4",4,null,1,8,"WEEK 8","TREATMENT","2013-01-08T12:00",55,null,null,null,null],
["CDISCPILOT01","FT","CDISC002",153,"AVL0217","AVL02-List A Intrusions","AVLT-REY","FORM 1","0","0",0,null,1,8,"WEEK 8","TREATMENT","2013-01-08T12:00",55,null,null,null,null],
["CDISCPILOT01","FT","CDISC002",154,"AVL0201","AVL02-List A Word 1","AVLT-REY","FORM 1","RECALLED","RECALLED",null,null,2,8,"WEEK 8","TREATMENT","2013-01-08T12:05",55,null,null,null,null],
["CDISCPILOT01","FT","CDISC002",155,"AVL0202","AVL02-List A Word 2","AVLT-REY","FORM 1","RECALLED","RECALLED",null,null,2,8,"WEEK 8","TREATMENT","2013-01-08T12:05",55,null,null,null,null],
["CDISCPILOT01","FT","CDISC002",156,"AVL0203","AVL02-List A Word 3","AVLT-REY","FORM 1","RECALLED","RECALLED",null,null,2,8,"WEEK 8","TREATMENT","2013-01-08T12:05",55,null,null,null,null],
["CDISCPILOT01","FT","CDISC002",157,"AVL0204","AVL02-List A Word 4","AVLT-REY","FORM 1","NOT RECALLED","NOT RECALLED",null,null,2,8,"WEEK 8","TREATMENT","2013-01-08T12:05",55,null,null,null,null],
["CDISCPILOT01","FT","CDISC002",158,"AVL0205","AVL02-List A Word 5","AVLT-REY","FORM 1","NOT RECALLED","NOT RECALLED",null,null,2,8,"WEEK 8","TREATMENT","2013-01-08T12:05",55,null,null,null,null],
["CDISCPILOT01","FT","CDISC002",159,"AVL0206","AVL02-List A Word 6","AVLT-REY","FORM 1","NOT RECALLED","NOT RECALLED",null,null,2,8,"WEEK 8","TREATMENT","2013-01-08T12:05",55,null,null,null,null],
["CDISCPILOT01","FT","CDISC002",160,"AVL0207","AVL02-List A Word 7","AVLT-REY","FORM 1","RECALLED","RECALLED",null,null,2,8,"WEEK 8","TREATMENT","2013-01-08T12:05",55,null,null,null,null],
["CDISCPILOT01","FT","CDISC002",161,"AVL0208","AVL02-List A Word 8","AVLT-REY","FORM 1","RECALLED","RECALLED",null,null,2,8,"WEEK 8","TREATMENT","2013-01-08T12:05",55,null,null,null,null],
["CDISCPILOT01","FT","CDISC002",162,"AVL0209","AVL02-List A Word 9","AVLT-REY","FORM 1","RECALLED","RECALLED",null,null,2,8,"WEEK 8","TREATMENT","2013-01-08T12:05",55,null,null,null,null],
["CDISCPILOT01","FT","CDISC002",163,"AVL0210","AVL02-List A Word 10","AVLT-REY","FORM 1","NOT RECALLED","NOT RECALLED",null,null,2,8,"WEEK 8","TREATMENT","2013-01-08T12:05",55,null,null,null,null],
["CDISCPILOT01","FT","CDISC002",164,"AVL0211","AVL02-List A Word 11","AVLT-REY","FORM 1","NOT RECALLED","NOT RECALLED",null,null,2,8,"WEEK 8","TREATMENT","2013-01-08T12:05",55,null,null,null,null],
["CDISCPILOT01","FT","CDISC002",165,"AVL0212","AVL02-List A Word 12","AVLT-REY","FORM 1","NOT RECALLED","NOT RECALLED",null,null,2,8,"WEEK 8","TREATMENT","2013-01-08T12:05",55,null,null,null,null],
["CDISCPILOT01","FT","CDISC002",166,"AVL0213","AVL02-List A Word 13","AVLT-REY","FORM 1","NOT RECALLED","NOT RECALLED",null,null,2,8,"WEEK 8","TREATMENT","2013-01-08T12:05",55,null,null,null,null],
["CDISCPILOT01","FT","CDISC002",167,"AVL0214","AVL02-List A Word 14","AVLT-REY","FORM 1","NOT RECALLED","NOT RECALLED",null,null,2,8,"WEEK 8","TREATMENT","2013-01-08T12:05",55,null,null,null,null],
["CDISCPILOT01","FT","CDISC002",168,"AVL0215","AVL02-List A Word 15","AVLT-REY","FORM 1","NOT RECALLED","NOT RECALLED",null,null,2,8,"WEEK 8","TREATMENT","2013-01-08T12:05",55,null,null,null,null],
["CDISCPILOT01","FT","CDISC002",169,"AVL0216","AVL02-List A Total","AVLT-REY","FORM 1","6","6",6,null,2,8,"WEEK 8","TREATMENT","2013-01-08T12:05",55,null,null,null,null],
["CDISCPILOT01","FT","CDISC002",170,"AVL0217","AVL02-List A Intrusions","AVLT-REY","FORM 1","0","0",0,null,2,8,"WEEK 8","TREATMENT","2013-01-08T12:05",55,null,null,null,null],
["CDISCPILOT01","FT","CDISC002",171,"AVL0201","AVL02-List A Word 1","AVLT-REY","FORM 1","RECALLED","RECALLED",null,null,3,8,"WEEK 8","TREATMENT","2013-01-08T12:10",55,null,null,null,null],
["CDISCPILOT01","FT","CDISC002",172,"AVL0202","AVL02-List A Word 2","AVLT-REY","FORM 1","RECALLED","RECALLED",null,null,3,8,"WEEK 8","TREATMENT","2013-01-08T12:10",55,null,null,null,null],
["CDISCPILOT01","FT","CDISC002",173,"AVL0203","AVL02-List A Word 3","AVLT-REY","FORM 1","RECALLED","RECALLED",null,null,3,8,"WEEK 8","TREATMENT","2013-01-08T12:10",55,null,null,null,null],
["CDISCPILOT01","FT","CDISC002",174,"AVL0204","AVL02-List A Word 4","AVLT-REY","FORM 1","NOT RECALLED","NOT RECALLED",null,null,3,8,"WEEK 8","TREATMENT","2013-01-08T12:10",55,null,null,null,null],
["CDISCPILOT01","FT","CDISC002",175,"AVL0205","AVL02-List A Word 5","AVLT-REY","FORM 1","NOT RECALLED","NOT RECALLED",null,null,3,8,"WEEK 8","TREATMENT","2013-01-08T12:10",55,null,null,null,null],
["CDISCPILOT01","FT","CDISC002",176,"AVL0206","AVL02-List A Word 6","AVLT-REY","FORM 1","NOT RECALLED","NOT RECALLED",null,null,3,8,"WEEK 8","TREATMENT","2013-01-08T12:10",55,null,null,null,null],
["CDISCPILOT01","FT","CDISC002",177,"AVL0207","AVL02-List A Word 7","AVLT-REY","FORM 1","RECALLED","RECALLED",null,null,3,8,"WEEK 8","TREATMENT","2013-01-08T12:10",55,null,null,null,null],
["CDISCPILOT01","FT","CDISC002",178,"AVL0208","AVL02-List A Word 8","AVLT-REY","FORM 1","RECALLED","RECALLED",null,null,3,8,"WEEK 8","TREATMENT","2013-01-08T12:10",55,null,null,null,null],
["CDISCPILOT01","FT","CDISC002",179,"AVL0209","AVL02-List A Word 9","AVLT-REY","FORM 1","RECALLED","RECALLED",null,null,3,8,"WEEK 8","TREATMENT","2013-01-08T12:10",55,null,null,null,null],
["CDISCPILOT01","FT","CDISC002",180,"AVL0210","AVL02-List A Word 10","AVLT-REY","FORM 1","NOT RECALLED","NOT RECALLED",null,null,3,8,"WEEK 8","TREATMENT","2013-01-08T12:10",55,null,null,null,null],
["CDISCPILOT01","FT","CDISC002",181,"AVL0211","AVL02-List A Word 11","AVLT-REY","FORM 1","NOT RECALLED","NOT RECALLED",null,null,3,8,"WEEK 8","TREATMENT","2013-01-08T12:10",55,null,null,null,null],
["CDISCPILOT01","FT","CDISC002",182,"AVL0212","AVL02-List A Word 12","AVLT-REY","FORM 1","NOT RECALLED","NOT RECALLED",null,null,3,8,"WEEK 8","TREATMENT","2013-01-08T12:10",55,null,null,null,null],
["CDISCPILOT01","FT","CDISC002",183,"AVL0213","AVL02-List A Word 13","AVLT-REY","FORM 1","NOT RECALLED","NOT RECALLED",null,null,3,8,"WEEK 8","TREATMENT","2013-01-08T12:10",55,null,null,null,null],
["CDISCPILOT01","FT","CDISC002",184,"AVL0214","AVL02-List A Word 14","AVLT-REY","FORM 1","NOT RECALLED","NOT RECALLED",null,null,3,8,"WEEK 8","TREATMENT","2013-01-08T12:10",55,null,null,null,null],
["CDISCPILOT01","FT","CDISC002",185,"AVL0215","AVL02-List A Word 15","AVLT-REY","FORM 1","NOT RECALLED","NOT RECALLED",null,null,3,8,"WEEK 8","TREATMENT","2013-01-08T12:10",55,null,null,null,null],
["CDISCPILOT01","FT","CDISC002",186,"AVL0216","AVL02-List A Total","AVLT-REY","FORM 1","6","6",6,null,3,8,"WEEK 8","TREATMENT","2013-01-08T12:10",55,null,null,null,null],
["CDISCPILOT01","FT","CDISC002",187,"AVL0217","AVL02-List A Intrusions","AVLT-REY","FORM 1","0","0",0,null,3,8,"WEEK 8","TREATMENT","2013-01-08T12:10",55,null,null,null,null],
["CDISCPILOT01","FT","CDISC002",188,"AVL0201","AVL02-List A Word 1","AVLT-REY","FORM 1","RECALLED","RECALLED",null,null,4,8,"WEEK 8","TREATMENT","2013-01-08T12:15",55,null,null,null,null],
["CDISCPILOT01","FT","CDISC002",189,"AVL0202","AVL02-List A Word 2","AVLT-REY","FORM 1","RECALLED","RECALLED",null,null,4,8,"WEEK 8","TREATMENT","2013-01-08T12:15",55,null,null,null,null],
["CDISCPILOT01","FT","CDISC002",190,"AVL0203","AVL02-List A Word 3","AVLT-REY","FORM 1","RECALLED","RECALLED",null,null,4,8,"WEEK 8","TREATMENT","2013-01-08T12:15",55,null,null,null,null],
["CDISCPILOT01","FT","CDISC002",191,"AVL0204","AVL02-List A Word 4","AVLT-REY","FORM 1","NOT RECALLED","NOT RECALLED",null,null,4,8,"WEEK 8","TREATMENT","2013-01-08T12:15",55,null,null,null,null],
["CDISCPILOT01","FT","CDISC002",192,"AVL0205","AVL02-List A Word 5","AVLT-REY","FORM 1","NOT RECALLED","NOT RECALLED",null,null,4,8,"WEEK 8","TREATMENT","2013-01-08T12:15",55,null,null,null,null],
["CDISCPILOT01","FT","CDISC002",193,"AVL0206","AVL02-List A Word 6","AVLT-REY","FORM 1","NOT RECALLED","NOT RECALLED",null,null,4,8,"WEEK 8","TREATMENT","2013-01-08T12:15",55,null,null,null,null],
["CDISCPILOT01","FT","CDISC002",194,"AVL0207","AVL02-List A Word 7","AVLT-REY","FORM 1","RECALLED","RECALLED",null,null,4,8,"WEEK 8","TREATMENT","2013-01-08T12:15",55,null,null,null,null],
["CDISCPILOT01","FT","CDISC002",195,"AVL0208","AVL02-List A Word 8","AVLT-REY","FORM 1","RECALLED","RECALLED",null,null,4,8,"WEEK 8","TREATMENT","2013-01-08T12:15",55,null,null,null,null],
["CDISCPILOT01","FT","CDISC002",196,"AVL0209","AVL02-List A Word 9","AVLT-REY","FORM 1","RECALLED","RECALLED",null,null,4,8,"WEEK 8","TREATMENT","2013-01-08T12:15",55,null,null,null,null],
["CDISCPILOT01","FT","CDISC002",197,"AVL0210","AVL02-List A Word 10","AVLT-REY","FORM 1","RECALLED","RECALLED",null,null,4,8,"WEEK 8","TREATMENT","2013-01-08T12:15",55,null,null,null,null],
["CDISCPILOT01","FT","CDISC002",198,"AVL0211","AVL02-List A Word 11","AVLT-REY","FORM 1","NOT RECALLED","NOT RECALLED",null,null,4,8,"WEEK 8","TREATMENT","2013-01-08T12:15",55,null,null,null,null],
["CDISCPILOT01","FT","CDISC002",199,"AVL0212","AVL02-List A Word 12","AVLT-REY","FORM 1","NOT RECALLED","NOT RECALLED",null,null,4,8,"WEEK 8","TREATMENT","2013-01-08T12:15",55,null,null,null,null],
["CDISCPILOT01","FT","CDISC002",200,"AVL0213","AVL02-List A Word 13","AVLT-REY","FORM 1","NOT RECALLED","NOT RECALLED",null,null,4,8,"WEEK 8","TREATMENT","2013-01-08T12:15",55,null,null,null,null],
["CDISCPILOT01","FT","CDISC002",201,"AVL0214","AVL02-List A Word 14","AVLT-REY","FORM 1","NOT RECALLED","NOT RECALLED",null,null,4,8,"WEEK 8","TREATMENT","2013-01-08T12:15",55,null,null,null,null],
["CDISCPILOT01","FT","CDISC002",202,"AVL0215","AVL02-List A Word 15","AVLT-REY","FORM 1","NOT RECALLED","NOT RECALLED",null,null,4,8,"WEEK 8","TREATMENT","2013-01-08T12:15",55,null,null,null,null],
["CDISCPILOT01","FT","CDISC002",203,"AVL0216","AVL02-List A Total","AVLT-REY","FORM 1","7","7",7,null,4,8,"WEEK 8","TREATMENT","2013-01-08T12:15",55,null,null,null,null],
["CDISCPILOT01","FT","CDISC002",204,"AVL0217","AVL02-List A Intrusions","AVLT-REY","FORM 1","0","0",0,null,4,8,"WEEK 8","TREATMENT","2013-01-08T12:15",55,null,null,null,null],
["CDISCPILOT01","FT","CDISC002",205,"AVL0201","AVL02-List A Word 1","AVLT-REY","FORM 1","RECALLED","RECALLED",null,null,5,8,"WEEK 8","TREATMENT","2013-01-08T12:20",55,null,null,null,null],
["CDISCPILOT01","FT","CDISC002",206,"AVL0202","AVL02-List A Word 2","AVLT-REY","FORM 1","RECALLED","RECALLED",null,null,5,8,"WEEK 8","TREATMENT","2013-01-08T12:20",55,null,null,null,null],
["CDISCPILOT01","FT","CDISC002",207,"AVL0203","AVL02-List A Word 3","AVLT-REY","FORM 1","RECALLED","RECALLED",null,null,5,8,"WEEK 8","TREATMENT","2013-01-08T12:20",55,null,null,null,null],
["CDISCPILOT01","FT","CDISC002",208,"AVL0204","AVL02-List A Word 4","AVLT-REY","FORM 1","NOT RECALLED","NOT RECALLED",null,null,5,8,"WEEK 8","TREATMENT","2013-01-08T12:20",55,null,null,null,null],
["CDISCPILOT01","FT","CDISC002",209,"AVL0205","AVL02-List A Word 5","AVLT-REY","FORM 1","NOT RECALLED","NOT RECALLED",null,null,5,8,"WEEK 8","TREATMENT","2013-01-08T12:20",55,null,null,null,null],
["CDISCPILOT01","FT","CDISC002",210,"AVL0206","AVL02-List A Word 6","AVLT-REY","FORM 1","NOT RECALLED","NOT RECALLED",null,null,5,8,"WEEK 8","TREATMENT","2013-01-08T12:20",55,null,null,null,null],
["CDISCPILOT01","FT","CDISC002",211,"AVL0207","AVL02-List A Word 7","AVLT-REY","FORM 1","RECALLED","RECALLED",null,null,5,8,"WEEK 8","TREATMENT","2013-01-08T12:20",55,null,null,null,null],
["CDISCPILOT01","FT","CDISC002",212,"AVL0208","AVL02-List A Word 8","AVLT-REY","FORM 1","RECALLED","RECALLED",null,null,5,8,"WEEK 8","TREATMENT","2013-01-08T12:20",55,null,null,null,null],
["CDISCPILOT01","FT","CDISC002",213,"AVL0209","AVL02-List A Word 9","AVLT-REY","FORM 1","RECALLED","RECALLED",null,null,5,8,"WEEK 8","TREATMENT","2013-01-08T12:20",55,null,null,null,null],
["CDISCPILOT01","FT","CDISC002",214,"AVL0210","AVL02-List A Word 10","AVLT-REY","FORM 1","RECALLED","RECALLED",null,null,5,8,"WEEK 8","TREATMENT","2013-01-08T12:20",55,null,null,null,null],
["CDISCPILOT01","FT","CDISC002",215,"AVL0211","AVL02-List A Word 11","AVLT-REY","FORM 1","NOT RECALLED","NOT RECALLED",null,null,5,8,"WEEK 8","TREATMENT","2013-01-08T12:20",55,null,null,null,null],
["CDISCPILOT01","FT","CDISC002",216,"AVL0212","AVL02-List A Word 12","AVLT-REY","FORM 1","NOT RECALLED","NOT RECALLED",null,null,5,8,"WEEK 8","TREATMENT","2013-01-08T12:20",55,null,null,null,null],
["CDISCPILOT01","FT","CDISC002",217,"AVL0213","AVL02-List A Word 13","AVLT-REY","FORM 1","NOT RECALLED","NOT RECALLED",null,null,5,8,"WEEK 8","TREATMENT","2013-01-08T12:20",55,null,null,null,null],
["CDISCPILOT01","FT","CDISC002",218,"AVL0214","AVL02-List A Word 14","AVLT-REY","FORM 1","NOT RECALLED","NOT RECALLED",null,null,5,8,"WEEK 8","TREATMENT","2013-01-08T12:20",55,null,null,null,null],
["CDISCPILOT01","FT","CDISC002",219,"AVL0215","AVL02-List A Word 15","AVLT-REY","FORM 1","NOT RECALLED","NOT RECALLED",null,null,5,8,"WEEK 8","TREATMENT","2013-01-08T12:20",55,null,null,null,null],
["CDISCPILOT01","FT","CDISC002",220,"AVL0216","AVL02-List A Total","AVLT-REY","FORM 1","7","7",7,null,5,8,"WEEK 8","TREATMENT","2013-01-08T12:20",55,null,null,null,null],
["CDISCPILOT01","FT","CDISC002",221,"AVL0217","AVL02-List A Intrusions","AVLT-REY","FORM 1","0","0",0,null,5,8,"WEEK 8","TREATMENT","2013-01-08T12:20",55,null,null,null,null],
["CDISCPILOT01","FT","CDISC002",222,"AVL0218","AVL02-List B Word 1","AVLT-REY","FORM 1","RECALLED","RECALLED",null,null,null,8,"WEEK 8","TREATMENT","2013-01-08T12:25",55,null,null,null,null],
["CDISCPILOT01","FT","CDISC002",223,"AVL0219","AVL02-List B Word 2","AVLT-REY","FORM 1","RECALLED","RECALLED",null,null,null,8,"WEEK 8","TREATMENT","2013-01-08T12:25",55,null,null,null,null],
["CDISCPILOT01","FT","CDISC002",224,"AVL0220","AVL02-List B Word 3","AVLT-REY","FORM 1","RECALLED","RECALLED",null,null,null,8,"WEEK 8","TREATMENT","2013-01-08T12:25",55,null,null,null,null],
["CDISCPILOT01","FT","CDISC002",225,"AVL0221","AVL02-List B Word 4","AVLT-REY","FORM 1","NOT RECALLED","NOT RECALLED",null,null,null,8,"WEEK 8","TREATMENT","2013-01-08T12:25",55,null,null,null,null],
["CDISCPILOT01","FT","CDISC002",226,"AVL0222","AVL02-List B Word 5","AVLT-REY","FORM 1","NOT RECALLED","NOT RECALLED",null,null,null,8,"WEEK 8","TREATMENT","2013-01-08T12:25",55,null,null,null,null],
["CDISCPILOT01","FT","CDISC002",227,"AVL0223","AVL02-List B Word 6","AVLT-REY","FORM 1","RECALLED","RECALLED",null,null,null,8,"WEEK 8","TREATMENT","2013-01-08T12:25",55,null,null,null,null],
["CDISCPILOT01","FT","CDISC002",228,"AVL0224","AVL02-List B Word 7","AVLT-REY","FORM 1","NOT RECALLED","NOT RECALLED",null,null,null,8,"WEEK 8","TREATMENT","2013-01-08T12:25",55,null,null,null,null],
["CDISCPILOT01","FT","CDISC002",229,"AVL0225","AVL02-List B Word 8","AVLT-REY","FORM 1","NOT RECALLED","NOT RECALLED",null,null,null,8,"WEEK 8","TREATMENT","2013-01-08T12:25",55,null,null,null,null],
["CDISCPILOT01","FT","CDISC002",230,"AVL0226","AVL02-List B Word 9","AVLT-REY","FORM 1","NOT RECALLED","NOT RECALLED",null,null,null,8,"WEEK 8","TREATMENT","2013-01-08T12:25",55,null,null,null,null],
["CDISCPILOT01","FT","CDISC002",231,"AVL0227","AVL02-List B Word 10","AVLT-REY","FORM 1","NOT RECALLED","NOT RECALLED",null,null,null,8,"WEEK 8","TREATMENT","2013-01-08T12:25",55,null,null,null,null],
["CDISCPILOT01","FT","CDISC002",232,"AVL0228","AVL02-List B Word 11","AVLT-REY","FORM 1","NOT RECALLED","NOT RECALLED",null,null,null,8,"WEEK 8","TREATMENT","2013-01-08T12:25",55,null,null,null,null],
["CDISCPILOT01","FT","CDISC002",233,"AVL0229","AVL02-List B Word 12","AVLT-REY","FORM 1","NOT RECALLED","NOT RECALLED",null,null,null,8,"WEEK 8","TREATMENT","2013-01-08T12:25",55,null,null,null,null],
["CDISCPILOT01","FT","CDISC002",234,"AVL0230","AVL02-List B Word 13","AVLT-REY","FORM 1","NOT RECALLED","NOT RECALLED",null,null,null,8,"WEEK 8","TREATMENT","2013-01-08T12:25",55,null,null,null,null],
["CDISCPILOT01","FT","CDISC002",235,"AVL0231","AVL02-List B Word 14","AVLT-REY","FORM 1","NOT RECALLED","NOT RECALLED",null,null,null,8,"WEEK 8","TREATMENT","2013-01-08T12:25",55,null,null,null,null],
["CDISCPILOT01","FT","CDISC002",236,"AVL0232","AVL02-List B Word 15","AVLT-REY","FORM 1","NOT RECALLED","NOT RECALLED",null,null,null,8,"WEEK 8","TREATMENT","2013-01-08T12:25",55,null,null,null,null],
["CDISCPILOT01","FT","CDISC002",237,"AVL0233","AVL02- List B Total","AVLT-REY","FORM 1","4","4",4,null,null,8,"WEEK 8","TREATMENT","2013-01-08T12:25",55,null,null,null,null],
["CDISCPILOT01","FT","CDISC002",238,"AVL0234","AVL02-List B Intrusions","AVLT-REY","FORM 1","1","1",1,null,null,8,"WEEK 8","TREATMENT","2013-01-08T12:25",55,null,null,null,null],
["CDISCPILOT01","FT","CDISC002",239,"AVL0201","AVL02-List A Word 1","AVLT-REY","FORM 1","RECALLED","RECALLED",null,null,6,8,"WEEK 8","TREATMENT","2013-01-08T12:30",55,null,null,null,null],
["CDISCPILOT01","FT","CDISC002",240,"AVL0202","AVL02-List A Word 2","AVLT-REY","FORM 1","RECALLED","RECALLED",null,null,6,8,"WEEK 8","TREATMENT","2013-01-08T12:30",55,null,null,null,null],
["CDISCPILOT01","FT","CDISC002",241,"AVL0203","AVL02-List A Word 3","AVLT-REY","FORM 1","RECALLED","RECALLED",null,null,6,8,"WEEK 8","TREATMENT","2013-01-08T12:30",55,null,null,null,null],
["CDISCPILOT01","FT","CDISC002",242,"AVL0204","AVL02-List A Word 4","AVLT-REY","FORM 1","NOT RECALLED","NOT RECALLED",null,null,6,8,"WEEK 8","TREATMENT","2013-01-08T12:30",55,null,null,null,null],
["CDISCPILOT01","FT","CDISC002",243,"AVL0205","AVL02-List A Word 5","AVLT-REY","FORM 1","NOT RECALLED","NOT RECALLED",null,null,6,8,"WEEK 8","TREATMENT","2013-01-08T12:30",55,null,null,null,null],
["CDISCPILOT01","FT","CDISC002",244,"AVL0206","AVL02-List A Word 6","AVLT-REY","FORM 1","NOT RECALLED","NOT RECALLED",null,null,6,8,"WEEK 8","TREATMENT","2013-01-08T12:30",55,null,null,null,null],
["CDISCPILOT01","FT","CDISC002",245,"AVL0207","AVL02-List A Word 7","AVLT-REY","FORM 1","NOT RECALLED","NOT RECALLED",null,null,6,8,"WEEK 8","TREATMENT","2013-01-08T12:30",55,null,null,null,null],
["CDISCPILOT01","FT","CDISC002",246,"AVL0208","AVL02-List A Word 8","AVLT-REY","FORM 1","RECALLED","RECALLED",null,null,6,8,"WEEK 8","TREATMENT","2013-01-08T12:30",55,null,null,null,null],
["CDISCPILOT01","FT","CDISC002",247,"AVL0209","AVL02-List A Word 9","AVLT-REY","FORM 1","RECALLED","RECALLED",null,null,6,8,"WEEK 8","TREATMENT","2013-01-08T12:30",55,null,null,null,null],
["CDISCPILOT01","FT","CDISC002",248,"AVL0210","AVL02-List A Word 10","AVLT-REY","FORM 1","RECALLED","RECALLED",null,null,6,8,"WEEK 8","TREATMENT","2013-01-08T12:30",55,null,null,null,null],
["CDISCPILOT01","FT","CDISC002",249,"AVL0211","AVL02-List A Word 11","AVLT-REY","FORM 1","NOT RECALLED","NOT RECALLED",null,null,6,8,"WEEK 8","TREATMENT","2013-01-08T12:30",55,null,null,null,null],
["CDISCPILOT01","FT","CDISC002",250,"AVL0212","AVL02-List A Word 12","AVLT-REY","FORM 1","NOT RECALLED","NOT RECALLED",null,null,6,8,"WEEK 8","TREATMENT","2013-01-08T12:30",55,null,null,null,null],
["CDISCPILOT01","FT","CDISC002",251,"AVL0213","AVL02-List A Word 13","AVLT-REY","FORM 1","NOT RECALLED","NOT RECALLED",null,null,6,8,"WEEK 8","TREATMENT","2013-01-08T12:30",55,null,null,null,null],
["CDISCPILOT01","FT","CDISC002",252,"AVL0214","AVL02-List A Word 14","AVLT-REY","FORM 1","NOT RECALLED","NOT RECALLED",null,null,6,8,"WEEK 8","TREATMENT","2013-01-08T12:30",55,null,null,null,null],
["CDISCPILOT01","FT","CDISC002",253,"AVL0215","AVL02-List A Word 15","AVLT-REY","FORM 1","NOT RECALLED","NOT RECALLED",null,null,6,8,"WEEK 8","TREATMENT","2013-01-08T12:30",55,null,null,null,null],
["CDISCPILOT01","FT","CDISC002",254,"AVL0216","AVL02-List A Total","AVLT-REY","FORM 1","6","6",6,null,6,8,"WEEK 8","TREATMENT","2013-01-08T12:30",55,null,null,null,null],
["CDISCPILOT01","FT","CDISC002",255,"AVL0217","AVL02-List A Intrusions","AVLT-REY","FORM 1","0","0",0,null,6,8,"WEEK 8","TREATMENT","2013-01-08T12:30",55,null,null,null,null],
["CDISCPILOT01","FT","CDISC002",256,"AVL0201","AVL02-List A Word 1","AVLT-REY","FORM 1","RECALLED","RECALLED",null,null,7,8,"WEEK 8","TREATMENT","2013-01-08T13:00",55,"30 MIN POST",1,"PT30M","LIST A RECALL 6"],
["CDISCPILOT01","FT","CDISC002",257,"AVL0202","AVL02-List A Word 2","AVLT-REY","FORM 1","RECALLED","RECALLED",null,null,7,8,"WEEK 8","TREATMENT","2013-01-08T13:00",55,"30 MIN POST",1,"PT30M","LIST A RECALL 6"],
["CDISCPILOT01","FT","CDISC002",258,"AVL0203","AVL02-List A Word 3","AVLT-REY","FORM 1","RECALLED","RECALLED",null,null,7,8,"WEEK 8","TREATMENT","2013-01-08T13:00",55,"30 MIN POST",1,"PT30M","LIST A RECALL 6"],
["CDISCPILOT01","FT","CDISC002",259,"AVL0204","AVL02-List A Word 4","AVLT-REY","FORM 1","NOT RECALLED","NOT RECALLED",null,null,7,8,"WEEK 8","TREATMENT","2013-01-08T13:00",55,"30 MIN POST",1,"PT30M","LIST A RECALL 6"],
["CDISCPILOT01","FT","CDISC002",260,"AVL0205","AVL02-List A Word 5","AVLT-REY","FORM 1","NOT RECALLED","NOT RECALLED",null,null,7,8,"WEEK 8","TREATMENT","2013-01-08T13:00",55,"30 MIN POST",1,"PT30M","LIST A RECALL 6"],
["CDISCPILOT01","FT","CDISC002",261,"AVL0206","AVL02-List A Word 6","AVLT-REY","FORM 1","NOT RECALLED","NOT RECALLED",null,null,7,8,"WEEK 8","TREATMENT","2013-01-08T13:00",55,"30 MIN POST",1,"PT30M","LIST A RECALL 6"],
["CDISCPILOT01","FT","CDISC002",262,"AVL0207","AVL02-List A Word 7","AVLT-REY","FORM 1","NOT RECALLED","NOT RECALLED",null,null,7,8,"WEEK 8","TREATMENT","2013-01-08T13:00",55,"30 MIN POST",1,"PT30M","LIST A RECALL 6"],
["CDISCPILOT01","FT","CDISC002",263,"AVL0208","AVL02-List A Word 8","AVLT-REY","FORM 1","NOT RECALLED","NOT RECALLED",null,null,7,8,"WEEK 8","TREATMENT","2013-01-08T13:00",55,"30 MIN POST",1,"PT30M","LIST A RECALL 6"],
["CDISCPILOT01","FT","CDISC002",264,"AVL0209","AVL02-List A Word 9","AVLT-REY","FORM 1","NOT RECALLED","NOT RECALLED",null,null,7,8,"WEEK 8","TREATMENT","2013-01-08T13:00",55,"30 MIN POST",1,"PT30M","LIST A RECALL 6"],
["CDISCPILOT01","FT","CDISC002",265,"AVL0210","AVL02-List A Word 10","AVLT-REY","FORM 1","RECALLED","RECALLED",null,null,7,8,"WEEK 8","TREATMENT","2013-01-08T13:00",55,"30 MIN POST",1,"PT30M","LIST A RECALL 6"],
["CDISCPILOT01","FT","CDISC002",266,"AVL0211","AVL02-List A Word 11","AVLT-REY","FORM 1","NOT RECALLED","NOT RECALLED",null,null,7,8,"WEEK 8","TREATMENT","2013-01-08T13:00",55,"30 MIN POST",1,"PT30M","LIST A RECALL 6"],
["CDISCPILOT01","FT","CDISC002",267,"AVL0212","AVL02-List A Word 12","AVLT-REY","FORM 1","NOT RECALLED","NOT RECALLED",null,null,7,8,"WEEK 8","TREATMENT","2013-01-08T13:00",55,"30 MIN POST",1,"PT30M","LIST A RECALL 6"],
["CDISCPILOT01","FT","CDISC002",268,"AVL0213","AVL02-List A Word 13","AVLT-REY","FORM 1","NOT RECALLED","NOT RECALLED",null,null,7,8,"WEEK 8","TREATMENT","2013-01-08T13:00",55,"30 MIN POST",1,"PT30M","LIST A RECALL 6"],
["CDISCPILOT01","FT","CDISC002",269,"AVL0214","AVL02-List A Word 14","AVLT-REY","FORM 1","NOT RECALLED","NOT RECALLED",null,null,7,8,"WEEK 8","TREATMENT","2013-01-08T13:00",55,"30 MIN POST",1,"PT30M","LIST A RECALL 6"],
["CDISCPILOT01","FT","CDISC002",270,"AVL0215","AVL02-List A Word 15","AVLT-REY","FORM 1","NOT RECALLED","NOT RECALLED",null,null,7,8,"WEEK 8","TREATMENT","2013-01-08T13:00",55,"30 MIN POST",1,"PT30M","LIST A RECALL 6"],
["CDISCPILOT01","FT","CDISC002",271,"AVL0216","AVL02-List A Total","AVLT-REY","FORM 1","4","4",4,null,7,8,"WEEK 8","TREATMENT","2013-01-08T13:00",55,"30 MIN POST",1,"PT30M","LIST A RECALL 6"],
["CDISCPILOT01","FT","CDISC002",272,"AVL0217","AVL02-List A Intrusions","AVLT-REY","FORM 1","1","1",1,null,7,8,"WEEK 8","TREATMENT","2013-01-08T13:00",55,"30 MIN POST",1,"PT30M","LIST A RECALL 6"],
["CDISCPILOT01","FT","CDISC003",1,"AVL0201","AVL02-List A Word 1","AVLT-REY","FORM 1","RECALLED","RECALLED",null,"Y",1,2,"SCREENING 2","SCREENING","2013-08-27T12:00",-2,null,null,null,null],
["CDISCPILOT01","FT","CDISC003",2,"AVL0202","AVL02-List A Word 2","AVLT-REY","FORM 1","RECALLED","RECALLED",null,"Y",1,2,"SCREENING 2","SCREENING","2013-08-27T12:00",-2,null,null,null,null],
["CDISCPILOT01","FT","CDISC003",3,"AVL0203","AVL02-List A Word 3","AVLT-REY","FORM 1","RECALLED","RECALLED",null,"Y",1,2,"SCREENING 2","SCREENING","2013-08-27T12:00",-2,null,null,null,null],
["CDISCPILOT01","FT","CDISC003",4,"AVL0204","AVL02-List A Word 4","AVLT-REY","FORM 1","RECALLED","RECALLED",null,"Y",1,2,"SCREENING 2","SCREENING","2013-08-27T12:00",-2,null,null,null,null],
["CDISCPILOT01","FT","CDISC003",5,"AVL0205","AVL02-List A Word 5","AVLT-REY","FORM 1","RECALLED","RECALLED",null,"Y",1,2,"SCREENING 2","SCREENING","2013-08-27T12:00",-2,null,null,null,null],
["CDISCPILOT01","FT","CDISC003",6,"AVL0206","AVL02-List A Word 6","AVLT-REY","FORM 1","NOT RECALLED","NOT RECALLED",null,"Y",1,2,"SCREENING 2","SCREENING","2013-08-27T12:00",-2,null,null,null,null],
["CDISCPILOT01","FT","CDISC003",7,"AVL0207","AVL02-List A Word 7","AVLT-REY","FORM 1","NOT RECALLED","NOT RECALLED",null,"Y",1,2,"SCREENING 2","SCREENING","2013-08-27T12:00",-2,null,null,null,null],
["CDISCPILOT01","FT","CDISC003",8,"AVL0208","AVL02-List A Word 8","AVLT-REY","FORM 1","RECALLED","RECALLED",null,"Y",1,2,"SCREENING 2","SCREENING","2013-08-27T12:00",-2,null,null,null,null],
["CDISCPILOT01","FT","CDISC003",9,"AVL0209","AVL02-List A Word 9","AVLT-REY","FORM 1","RECALLED","RECALLED",null,"Y",1,2,"SCREENING 2","SCREENING","2013-08-27T12:00",-2,null,null,null,null],
["CDISCPILOT01","FT","CDISC003",10,"AVL0210","AVL02-List A Word 10","AVLT-REY","FORM 1","RECALLED","RECALLED",null,"Y",1,2,"SCREENING 2","SCREENING","2013-08-27T12:00",-2,null,null,null,null],
["CDISCPILOT01","FT","CDISC003",11,"AVL0211","AVL02-List A Word 11","AVLT-REY","FORM 1","RECALLED","RECALLED",null,"Y",1,2,"SCREENING 2","SCREENING","2013-08-27T12:00",-2,null,null,null,null],
["CDISCPILOT01","FT","CDISC003",12,"AVL0212","AVL02-List A Word 12","AVLT-REY","FORM 1","NOT RECALLED","NOT RECALLED",null,"Y",1,2,"SCREENING 2","SCREENING","2013-08-27T12:00",-2,null,null,null,null],
["CDISCPILOT01","FT","CDISC003",13,"AVL0213","AVL02-List A Word 13","AVLT-REY","FORM 1","NOT RECALLED","NOT RECALLED",null,"Y",1,2,"SCREENING 2","SCREENING","2013-08-27T12:00",-2,null,null,null,null],
["CDISCPILOT01","FT","CDISC003",14,"AVL0214","AVL02-List A Word 14","AVLT-REY","FORM 1","NOT RECALLED","NOT RECALLED",null,"Y",1,2,"SCREENING 2","SCREENING","2013-08-27T12:00",-2,null,null,null,null],
["CDISCPILOT01","FT","CDISC003",15,"AVL0215","AVL02-List A Word 15","AVLT-REY","FORM 1","NOT RECALLED","NOT RECALLED",null,"Y",1,2,"SCREENING 2","SCREENING","2013-08-27T12:00",-2,null,null,null,null],
["CDISCPILOT01","FT","CDISC003",16,"AVL0216","AVL02-List A Total","AVLT-REY","FORM 1","9","9",9,"Y",1,2,"SCREENING 2","SCREENING","2013-08-27T12:00",-2,null,null,null,null],
["CDISCPILOT01","FT","CDISC003",17,"AVL0217","AVL02-List A Intrusions","AVLT-REY","FORM 1","0","0",0,"Y",1,2,"SCREENING 2","SCREENING","2013-08-27T12:00",-2,null,null,null,null],
["CDISCPILOT01","FT","CDISC003",18,"AVL0201","AVL02-List A Word 1","AVLT-REY","FORM 1","RECALLED","RECALLED",null,"Y",2,2,"SCREENING 2","SCREENING","2013-08-27T12:05",-2,null,null,null,null],
["CDISCPILOT01","FT","CDISC003",19,"AVL0202","AVL02-List A Word 2","AVLT-REY","FORM 1","RECALLED","RECALLED",null,"Y",2,2,"SCREENING 2","SCREENING","2013-08-27T12:05",-2,null,null,null,null],
["CDISCPILOT01","FT","CDISC003",20,"AVL0203","AVL02-List A Word 3","AVLT-REY","FORM 1","RECALLED","RECALLED",null,"Y",2,2,"SCREENING 2","SCREENING","2013-08-27T12:05",-2,null,null,null,null],
["CDISCPILOT01","FT","CDISC003",21,"AVL0204","AVL02-List A Word 4","AVLT-REY","FORM 1","RECALLED","RECALLED",null,"Y",2,2,"SCREENING 2","SCREENING","2013-08-27T12:05",-2,null,null,null,null],
["CDISCPILOT01","FT","CDISC003",22,"AVL0205","AVL02-List A Word 5","AVLT-REY","FORM 1","RECALLED","RECALLED",null,"Y",2,2,"SCREENING 2","SCREENING","2013-08-27T12:05",-2,null,null,null,null],
["CDISCPILOT01","FT","CDISC003",23,"AVL0206","AVL02-List A Word 6","AVLT-REY","FORM 1","RECALLED","RECALLED",null,"Y",2,2,"SCREENING 2","SCREENING","2013-08-27T12:05",-2,null,null,null,null],
["CDISCPILOT01","FT","CDISC003",24,"AVL0207","AVL02-List A Word 7","AVLT-REY","FORM 1","NOT RECALLED","NOT RECALLED",null,"Y",2,2,"SCREENING 2","SCREENING","2013-08-27T12:05",-2,null,null,null,null],
["CDISCPILOT01","FT","CDISC003",25,"AVL0208","AVL02-List A Word 8","AVLT-REY","FORM 1","RECALLED","RECALLED",null,"Y",2,2,"SCREENING 2","SCREENING","2013-08-27T12:05",-2,null,null,null,null],
["CDISCPILOT01","FT","CDISC003",26,"AVL0209","AVL02-List A Word 9","AVLT-REY","FORM 1","RECALLED","RECALLED",null,"Y",2,2,"SCREENING 2","SCREENING","2013-08-27T12:05",-2,null,null,null,null],
["CDISCPILOT01","FT","CDISC003",27,"AVL0210","AVL02-List A Word 10","AVLT-REY","FORM 1","RECALLED","RECALLED",null,"Y",2,2,"SCREENING 2","SCREENING","2013-08-27T12:05",-2,null,null,null,null],
["CDISCPILOT01","FT","CDISC003",28,"AVL0211","AVL02-List A Word 11","AVLT-REY","FORM 1","RECALLED","RECALLED",null,"Y",2,2,"SCREENING 2","SCREENING","2013-08-27T12:05",-2,null,null,null,null],
["CDISCPILOT01","FT","CDISC003",29,"AVL0212","AVL02-List A Word 12","AVLT-REY","FORM 1","NOT RECALLED","NOT RECALLED",null,"Y",2,2,"SCREENING 2","SCREENING","2013-08-27T12:05",-2,null,null,null,null],
["CDISCPILOT01","FT","CDISC003",30,"AVL0213","AVL02-List A Word 13","AVLT-REY","FORM 1","NOT RECALLED","NOT RECALLED",null,"Y",2,2,"SCREENING 2","SCREENING","2013-08-27T12:05",-2,null,null,null,null],
["CDISCPILOT01","FT","CDISC003",31,"AVL0214","AVL02-List A Word 14","AVLT-REY","FORM 1","NOT RECALLED","NOT RECALLED",null,"Y",2,2,"SCREENING 2","SCREENING","2013-08-27T12:05",-2,null,null,null,null],
["CDISCPILOT01","FT","CDISC003",32,"AVL0215","AVL02-List A Word 15","AVLT-REY","FORM 1","NOT RECALLED","NOT RECALLED",null,"Y",2,2,"SCREENING 2","SCREENING","2013-08-27T12:05",-2,null,null,null,null],
["CDISCPILOT01","FT","CDISC003",33,"AVL0216","AVL02-List A Total","AVLT-REY","FORM 1","10","10",10,"Y",2,2,"SCREENING 2","SCREENING","2013-08-27T12:05",-2,null,null,null,null],
["CDISCPILOT01","FT","CDISC003",34,"AVL0217","AVL02-List A Intrusions","AVLT-REY","FORM 1","2","2",2,"Y",2,2,"SCREENING 2","SCREENING","2013-08-27T12:05",-2,null,null,null,null],
["CDISCPILOT01","FT","CDISC003",35,"AVL0201","AVL02-List A Word 1","AVLT-REY","FORM 1","RECALLED","RECALLED",null,"Y",3,2,"SCREENING 2","SCREENING","2013-08-27T12:10",-2,null,null,null,null],
["CDISCPILOT01","FT","CDISC003",36,"AVL0202","AVL02-List A Word 2","AVLT-REY","FORM 1","RECALLED","RECALLED",null,"Y",3,2,"SCREENING 2","SCREENING","2013-08-27T12:10",-2,null,null,null,null],
["CDISCPILOT01","FT","CDISC003",37,"AVL0203","AVL02-List A Word 3","AVLT-REY","FORM 1","RECALLED","RECALLED",null,"Y",3,2,"SCREENING 2","SCREENING","2013-08-27T12:10",-2,null,null,null,null],
["CDISCPILOT01","FT","CDISC003",38,"AVL0204","AVL02-List A Word 4","AVLT-REY","FORM 1","RECALLED","RECALLED",null,"Y",3,2,"SCREENING 2","SCREENING","2013-08-27T12:10",-2,null,null,null,null],
["CDISCPILOT01","FT","CDISC003",39,"AVL0205","AVL02-List A Word 5","AVLT-REY","FORM 1","RECALLED","RECALLED",null,"Y",3,2,"SCREENING 2","SCREENING","2013-08-27T12:10",-2,null,null,null,null],
["CDISCPILOT01","FT","CDISC003",40,"AVL0206","AVL02-List A Word 6","AVLT-REY","FORM 1","RECALLED","RECALLED",null,"Y",3,2,"SCREENING 2","SCREENING","2013-08-27T12:10",-2,null,null,null,null],
["CDISCPILOT01","FT","CDISC003",41,"AVL0207","AVL02-List A Word 7","AVLT-REY","FORM 1","RECALLED","RECALLED",null,"Y",3,2,"SCREENING 2","SCREENING","2013-08-27T12:10",-2,null,null,null,null],
["CDISCPILOT01","FT","CDISC003",42,"AVL0208","AVL02-List A Word 8","AVLT-REY","FORM 1","RECALLED","RECALLED",null,"Y",3,2,"SCREENING 2","SCREENING","2013-08-27T12:10",-2,null,null,null,null],
["CDISCPILOT01","FT","CDISC003",43,"AVL0209","AVL02-List A Word 9","AVLT-REY","FORM 1","RECALLED","RECALLED",null,"Y",3,2,"SCREENING 2","SCREENING","2013-08-27T12:10",-2,null,null,null,null],
["CDISCPILOT01","FT","CDISC003",44,"AVL0210","AVL02-List A Word 10","AVLT-REY","FORM 1","RECALLED","RECALLED",null,"Y",3,2,"SCREENING 2","SCREENING","2013-08-27T12:10",-2,null,null,null,null],
["CDISCPILOT01","FT","CDISC003",45,"AVL0211","AVL02-List A Word 11","AVLT-REY","FORM 1","RECALLED","RECALLED",null,"Y",3,2,"SCREENING 2","SCREENING","2013-08-27T12:10",-2,null,null,null,null],
["CDISCPILOT01","FT","CDISC003",46,"AVL0212","AVL02-List A Word 12","AVLT-REY","FORM 1","NOT RECALLED","NOT RECALLED",null,"Y",3,2,"SCREENING 2","SCREENING","2013-08-27T12:10",-2,null,null,null,null],
["CDISCPILOT01","FT","CDISC003",47,"AVL0213","AVL02-List A Word 13","AVLT-REY","FORM 1","NOT RECALLED","NOT RECALLED",null,"Y",3,2,"SCREENING 2","SCREENING","2013-08-27T12:10",-2,null,null,null,null],
["CDISCPILOT01","FT","CDISC003",48,"AVL0214","AVL02-List A Word 14","AVLT-REY","FORM 1","NOT RECALLED","NOT RECALLED",null,"Y",3,2,"SCREENING 2","SCREENING","2013-08-27T12:10",-2,null,null,null,null],
["CDISCPILOT01","FT","CDISC003",49,"AVL0215","AVL02-List A Word 15","AVLT-REY","FORM 1","NOT RECALLED","NOT RECALLED",null,"Y",3,2,"SCREENING 2","SCREENING","2013-08-27T12:10",-2,null,null,null,null],
["CDISCPILOT01","FT","CDISC003",50,"AVL0216","AVL02-List A Total","AVLT-REY","FORM 1","11","11",11,"Y",3,2,"SCREENING 2","SCREENING","2013-08-27T12:10",-2,null,null,null,null],
["CDISCPILOT01","FT","CDISC003",51,"AVL0217","AVL02-List A Intrusions","AVLT-REY","FORM 1","1","1",1,"Y",3,2,"SCREENING 2","SCREENING","2013-08-27T12:10",-2,null,null,null,null],
["CDISCPILOT01","FT","CDISC003",52,"AVL0201","AVL02-List A Word 1","AVLT-REY","FORM 1","RECALLED","RECALLED",null,"Y",4,2,"SCREENING 2","SCREENING","2013-08-27T12:15",-2,null,null,null,null],
["CDISCPILOT01","FT","CDISC003",53,"AVL0202","AVL02-List A Word 2","AVLT-REY","FORM 1","RECALLED","RECALLED",null,"Y",4,2,"SCREENING 2","SCREENING","2013-08-27T12:15",-2,null,null,null,null],
["CDISCPILOT01","FT","CDISC003",54,"AVL0203","AVL02-List A Word 3","AVLT-REY","FORM 1","RECALLED","RECALLED",null,"Y",4,2,"SCREENING 2","SCREENING","2013-08-27T12:15",-2,null,null,null,null],
["CDISCPILOT01","FT","CDISC003",55,"AVL0204","AVL02-List A Word 4","AVLT-REY","FORM 1","RECALLED","RECALLED",null,"Y",4,2,"SCREENING 2","SCREENING","2013-08-27T12:15",-2,null,null,null,null],
["CDISCPILOT01","FT","CDISC003",56,"AVL0205","AVL02-List A Word 5","AVLT-REY","FORM 1","RECALLED","RECALLED",null,"Y",4,2,"SCREENING 2","SCREENING","2013-08-27T12:15",-2,null,null,null,null],
["CDISCPILOT01","FT","CDISC003",57,"AVL0206","AVL02-List A Word 6","AVLT-REY","FORM 1","RECALLED","RECALLED",null,"Y",4,2,"SCREENING 2","SCREENING","2013-08-27T12:15",-2,null,null,null,null],
["CDISCPILOT01","FT","CDISC003",58,"AVL0207","AVL02-List A Word 7","AVLT-REY","FORM 1","RECALLED","RECALLED",null,"Y",4,2,"SCREENING 2","SCREENING","2013-08-27T12:15",-2,null,null,null,null],
["CDISCPILOT01","FT","CDISC003",59,"AVL0208","AVL02-List A Word 8","AVLT-REY","FORM 1","RECALLED","RECALLED",null,"Y",4,2,"SCREENING 2","SCREENING","2013-08-27T12:15",-2,null,null,null,null],
["CDISCPILOT01","FT","CDISC003",60,"AVL0209","AVL02-List A Word 9","AVLT-REY","FORM 1","RECALLED","RECALLED",null,"Y",4,2,"SCREENING 2","SCREENING","2013-08-27T12:15",-2,null,null,null,null],
["CDISCPILOT01","FT","CDISC003",61,"AVL0210","AVL02-List A Word 10","AVLT-REY","FORM 1","RECALLED","RECALLED",null,"Y",4,2,"SCREENING 2","SCREENING","2013-08-27T12:15",-2,null,null,null,null],
["CDISCPILOT01","FT","CDISC003",62,"AVL0211","AVL02-List A Word 11","AVLT-REY","FORM 1","RECALLED","RECALLED",null,"Y",4,2,"SCREENING 2","SCREENING","2013-08-27T12:15",-2,null,null,null,null],
["CDISCPILOT01","FT","CDISC003",63,"AVL0212","AVL02-List A Word 12","AVLT-REY","FORM 1","RECALLED","RECALLED",null,"Y",4,2,"SCREENING 2","SCREENING","2013-08-27T12:15",-2,null,null,null,null],
["CDISCPILOT01","FT","CDISC003",64,"AVL0213","AVL02-List A Word 13","AVLT-REY","FORM 1","NOT RECALLED","NOT RECALLED",null,"Y",4,2,"SCREENING 2","SCREENING","2013-08-27T12:15",-2,null,null,null,null],
["CDISCPILOT01","FT","CDISC003",65,"AVL0214","AVL02-List A Word 14","AVLT-REY","FORM 1","NOT RECALLED","NOT RECALLED",null,"Y",4,2,"SCREENING 2","SCREENING","2013-08-27T12:15",-2,null,null,null,null],
["CDISCPILOT01","FT","CDISC003",66,"AVL0215","AVL02-List A Word 15","AVLT-REY","FORM 1","NOT RECALLED","NOT RECALLED",null,"Y",4,2,"SCREENING 2","SCREENING","2013-08-27T12:15",-2,null,null,null,null],
["CDISCPILOT01","FT","CDISC003",67,"AVL0216","AVL02-List A Total","AVLT-REY","FORM 1","12","12",12,"Y",4,2,"SCREENING 2","SCREENING","2013-08-27T12:15",-2,null,null,null,null],
["CDISCPILOT01","FT","CDISC003",68,"AVL0217","AVL02-List A Intrusions","AVLT-REY","FORM 1","2","2",2,"Y",4,2,"SCREENING 2","SCREENING","2013-08-27T12:15",-2,null,null,null,null],
["CDISCPILOT01","FT","CDISC003",69,"AVL0201","AVL02-List A Word 1","AVLT-REY","FORM 1","RECALLED","RECALLED",null,"Y",5,2,"SCREENING 2","SCREENING","2013-08-27T12:20",-2,null,null,null,null],
["CDISCPILOT01","FT","CDISC003",70,"AVL0202","AVL02-List A Word 2","AVLT-REY","FORM 1","RECALLED","RECALLED",null,"Y",5,2,"SCREENING 2","SCREENING","2013-08-27T12:20",-2,null,null,null,null],
["CDISCPILOT01","FT","CDISC003",71,"AVL0203","AVL02-List A Word 3","AVLT-REY","FORM 1","RECALLED","RECALLED",null,"Y",5,2,"SCREENING 2","SCREENING","2013-08-27T12:20",-2,null,null,null,null],
["CDISCPILOT01","FT","CDISC003",72,"AVL0204","AVL02-List A Word 4","AVLT-REY","FORM 1","RECALLED","RECALLED",null,"Y",5,2,"SCREENING 2","SCREENING","2013-08-27T12:20",-2,null,null,null,null],
["CDISCPILOT01","FT","CDISC003",73,"AVL0205","AVL02-List A Word 5","AVLT-REY","FORM 1","RECALLED","RECALLED",null,"Y",5,2,"SCREENING 2","SCREENING","2013-08-27T12:20",-2,null,null,null,null],
["CDISCPILOT01","FT","CDISC003",74,"AVL0206","AVL02-List A Word 6","AVLT-REY","FORM 1","RECALLED","RECALLED",null,"Y",5,2,"SCREENING 2","SCREENING","2013-08-27T12:20",-2,null,null,null,null],
["CDISCPILOT01","FT","CDISC003",75,"AVL0207","AVL02-List A Word 7","AVLT-REY","FORM 1","RECALLED","RECALLED",null,"Y",5,2,"SCREENING 2","SCREENING","2013-08-27T12:20",-2,null,null,null,null],
["CDISCPILOT01","FT","CDISC003",76,"AVL0208","AVL02-List A Word 8","AVLT-REY","FORM 1","RECALLED","RECALLED",null,"Y",5,2,"SCREENING 2","SCREENING","2013-08-27T12:20",-2,null,null,null,null],
["CDISCPILOT01","FT","CDISC003",77,"AVL0209","AVL02-List A Word 9","AVLT-REY","FORM 1","RECALLED","RECALLED",null,"Y",5,2,"SCREENING 2","SCREENING","2013-08-27T12:20",-2,null,null,null,null],
["CDISCPILOT01","FT","CDISC003",78,"AVL0210","AVL02-List A Word 10","AVLT-REY","FORM 1","RECALLED","RECALLED",null,"Y",5,2,"SCREENING 2","SCREENING","2013-08-27T12:20",-2,null,null,null,null],
["CDISCPILOT01","FT","CDISC003",79,"AVL0211","AVL02-List A Word 11","AVLT-REY","FORM 1","RECALLED","RECALLED",null,"Y",5,2,"SCREENING 2","SCREENING","2013-08-27T12:20",-2,null,null,null,null],
["CDISCPILOT01","FT","CDISC003",80,"AVL0212","AVL02-List A Word 12","AVLT-REY","FORM 1","RECALLED","RECALLED",null,"Y",5,2,"SCREENING 2","SCREENING","2013-08-27T12:20",-2,null,null,null,null],
["CDISCPILOT01","FT","CDISC003",81,"AVL0213","AVL02-List A Word 13","AVLT-REY","FORM 1","RECALLED","RECALLED",null,"Y",5,2,"SCREENING 2","SCREENING","2013-08-27T12:20",-2,null,null,null,null],
["CDISCPILOT01","FT","CDISC003",82,"AVL0214","AVL02-List A Word 14","AVLT-REY","FORM 1","NOT RECALLED","NOT RECALLED",null,"Y",5,2,"SCREENING 2","SCREENING","2013-08-27T12:20",-2,null,null,null,null],
["CDISCPILOT01","FT","CDISC003",83,"AVL0215","AVL02-List A Word 15","AVLT-REY","FORM 1","NOT RECALLED","NOT RECALLED",null,"Y",5,2,"SCREENING 2","SCREENING","2013-08-27T12:20",-2,null,null,null,null],
["CDISCPILOT01","FT","CDISC003",84,"AVL0216","AVL02-List A Total","AVLT-REY","FORM 1","13","13",13,"Y",5,2,"SCREENING 2","SCREENING","2013-08-27T12:20",-2,null,null,null,null],
["CDISCPILOT01","FT","CDISC003",85,"AVL0217","AVL02-List A Intrusions","AVLT-REY","FORM 1","1","1",1,"Y",5,2,"SCREENING 2","SCREENING","2013-08-27T12:20",-2,null,null,null,null],
["CDISCPILOT01","FT","CDISC003",86,"AVL0218","AVL02-List B Word 1","AVLT-REY","FORM 1","RECALLED","RECALLED",null,"Y",null,2,"SCREENING 2","SCREENING","2013-08-27T12:25",-2,null,null,null,null],
["CDISCPILOT01","FT","CDISC003",87,"AVL0219","AVL02-List B Word 2","AVLT-REY","FORM 1","RECALLED","RECALLED",null,"Y",null,2,"SCREENING 2","SCREENING","2013-08-27T12:25",-2,null,null,null,null],
["CDISCPILOT01","FT","CDISC003",88,"AVL0220","AVL02-List B Word 3","AVLT-REY","FORM 1","RECALLED","RECALLED",null,"Y",null,2,"SCREENING 2","SCREENING","2013-08-27T12:25",-2,null,null,null,null],
["CDISCPILOT01","FT","CDISC003",89,"AVL0221","AVL02-List B Word 4","AVLT-REY","FORM 1","RECALLED","RECALLED",null,"Y",null,2,"SCREENING 2","SCREENING","2013-08-27T12:25",-2,null,null,null,null],
["CDISCPILOT01","FT","CDISC003",90,"AVL0222","AVL02-List B Word 5","AVLT-REY","FORM 1","RECALLED","RECALLED",null,"Y",null,2,"SCREENING 2","SCREENING","2013-08-27T12:25",-2,null,null,null,null],
["CDISCPILOT01","FT","CDISC003",91,"AVL0223","AVL02-List B Word 6","AVLT-REY","FORM 1","RECALLED","RECALLED",null,"Y",null,2,"SCREENING 2","SCREENING","2013-08-27T12:25",-2,null,null,null,null],
["CDISCPILOT01","FT","CDISC003",92,"AVL0224","AVL02-List B Word 7","AVLT-REY","FORM 1","RECALLED","RECALLED",null,"Y",null,2,"SCREENING 2","SCREENING","2013-08-27T12:25",-2,null,null,null,null],
["CDISCPILOT01","FT","CDISC003",93,"AVL0225","AVL02-List B Word 8","AVLT-REY","FORM 1","RECALLED","RECALLED",null,"Y",null,2,"SCREENING 2","SCREENING","2013-08-27T12:25",-2,null,null,null,null],
["CDISCPILOT01","FT","CDISC003",94,"AVL0226","AVL02-List B Word 9","AVLT-REY","FORM 1","RECALLED","RECALLED",null,"Y",null,2,"SCREENING 2","SCREENING","2013-08-27T12:25",-2,null,null,null,null],
["CDISCPILOT01","FT","CDISC003",95,"AVL0227","AVL02-List B Word 10","AVLT-REY","FORM 1","RECALLED","RECALLED",null,"Y",null,2,"SCREENING 2","SCREENING","2013-08-27T12:25",-2,null,null,null,null],
["CDISCPILOT01","FT","CDISC003",96,"AVL0228","AVL02-List B Word 11","AVLT-REY","FORM 1","NOT RECALLED","NOT RECALLED",null,"Y",null,2,"SCREENING 2","SCREENING","2013-08-27T12:25",-2,null,null,null,null],
["CDISCPILOT01","FT","CDISC003",97,"AVL0229","AVL02-List B Word 12","AVLT-REY","FORM 1","NOT RECALLED","NOT RECALLED",null,"Y",null,2,"SCREENING 2","SCREENING","2013-08-27T12:25",-2,null,null,null,null],
["CDISCPILOT01","FT","CDISC003",98,"AVL0230","AVL02-List B Word 13","AVLT-REY","FORM 1","NOT RECALLED","NOT RECALLED",null,"Y",null,2,"SCREENING 2","SCREENING","2013-08-27T12:25",-2,null,null,null,null],
["CDISCPILOT01","FT","CDISC003",99,"AVL0231","AVL02-List B Word 14","AVLT-REY","FORM 1","NOT RECALLED","NOT RECALLED",null,"Y",null,2,"SCREENING 2","SCREENING","2013-08-27T12:25",-2,null,null,null,null],
["CDISCPILOT01","FT","CDISC003",100,"AVL0232","AVL02-List B Word 15","AVLT-REY","FORM 1","NOT RECALLED","NOT RECALLED",null,"Y",null,2,"SCREENING 2","SCREENING","2013-08-27T12:25",-2,null,null,null,null],
["CDISCPILOT01","FT","CDISC003",101,"AVL0233","AVL02- List B Total","AVLT-REY","FORM 1","10","10",10,"Y",null,2,"SCREENING 2","SCREENING","2013-08-27T12:25",-2,null,null,null,null],
["CDISCPILOT01","FT","CDISC003",102,"AVL0234","AVL02-List B Intrusions","AVLT-REY","FORM 1","1","1",1,"Y",null,2,"SCREENING 2","SCREENING","2013-08-27T12:25",-2,null,null,null,null],
["CDISCPILOT01","FT","CDISC003",103,"AVL0201","AVL02-List A Word 1","AVLT-REY","FORM 1","RECALLED","RECALLED",null,"Y",6,2,"SCREENING 2","SCREENING","2013-08-27T12:30",-2,null,null,null,null],
["CDISCPILOT01","FT","CDISC003",104,"AVL0202","AVL02-List A Word 2","AVLT-REY","FORM 1","RECALLED","RECALLED",null,"Y",6,2,"SCREENING 2","SCREENING","2013-08-27T12:30",-2,null,null,null,null],
["CDISCPILOT01","FT","CDISC003",105,"AVL0203","AVL02-List A Word 3","AVLT-REY","FORM 1","RECALLED","RECALLED",null,"Y",6,2,"SCREENING 2","SCREENING","2013-08-27T12:30",-2,null,null,null,null],
["CDISCPILOT01","FT","CDISC003",106,"AVL0204","AVL02-List A Word 4","AVLT-REY","FORM 1","RECALLED","RECALLED",null,"Y",6,2,"SCREENING 2","SCREENING","2013-08-27T12:30",-2,null,null,null,null],
["CDISCPILOT01","FT","CDISC003",107,"AVL0205","AVL02-List A Word 5","AVLT-REY","FORM 1","RECALLED","RECALLED",null,"Y",6,2,"SCREENING 2","SCREENING","2013-08-27T12:30",-2,null,null,null,null],
["CDISCPILOT01","FT","CDISC003",108,"AVL0206","AVL02-List A Word 6","AVLT-REY","FORM 1","RECALLED","RECALLED",null,"Y",6,2,"SCREENING 2","SCREENING","2013-08-27T12:30",-2,null,null,null,null],
["CDISCPILOT01","FT","CDISC003",109,"AVL0207","AVL02-List A Word 7","AVLT-REY","FORM 1","RECALLED","RECALLED",null,"Y",6,2,"SCREENING 2","SCREENING","2013-08-27T12:30",-2,null,null,null,null],
["CDISCPILOT01","FT","CDISC003",110,"AVL0208","AVL02-List A Word 8","AVLT-REY","FORM 1","RECALLED","RECALLED",null,"Y",6,2,"SCREENING 2","SCREENING","2013-08-27T12:30",-2,null,null,null,null],
["CDISCPILOT01","FT","CDISC003",111,"AVL0209","AVL02-List A Word 9","AVLT-REY","FORM 1","RECALLED","RECALLED",null,"Y",6,2,"SCREENING 2","SCREENING","2013-08-27T12:30",-2,null,null,null,null],
["CDISCPILOT01","FT","CDISC003",112,"AVL0210","AVL02-List A Word 10","AVLT-REY","FORM 1","RECALLED","RECALLED",null,"Y",6,2,"SCREENING 2","SCREENING","2013-08-27T12:30",-2,null,null,null,null],
["CDISCPILOT01","FT","CDISC003",113,"AVL0211","AVL02-List A Word 11","AVLT-REY","FORM 1","RECALLED","RECALLED",null,"Y",6,2,"SCREENING 2","SCREENING","2013-08-27T12:30",-2,null,null,null,null],
["CDISCPILOT01","FT","CDISC003",114,"AVL0212","AVL02-List A Word 12","AVLT-REY","FORM 1","RECALLED","RECALLED",null,"Y",6,2,"SCREENING 2","SCREENING","2013-08-27T12:30",-2,null,null,null,null],
["CDISCPILOT01","FT","CDISC003",115,"AVL0213","AVL02-List A Word 13","AVLT-REY","FORM 1","RECALLED","RECALLED",null,"Y",6,2,"SCREENING 2","SCREENING","2013-08-27T12:30",-2,null,null,null,null],
["CDISCPILOT01","FT","CDISC003",116,"AVL0214","AVL02-List A Word 14","AVLT-REY","FORM 1","NOT RECALLED","NOT RECALLED",null,"Y",6,2,"SCREENING 2","SCREENING","2013-08-27T12:30",-2,null,null,null,null],
["CDISCPILOT01","FT","CDISC003",117,"AVL0215","AVL02-List A Word 15","AVLT-REY","FORM 1","NOT RECALLED","NOT RECALLED",null,"Y",6,2,"SCREENING 2","SCREENING","2013-08-27T12:30",-2,null,null,null,null],
["CDISCPILOT01","FT","CDISC003",118,"AVL0216","AVL02-List A Total","AVLT-REY","FORM 1","13","13",13,"Y",6,2,"SCREENING 2","SCREENING","2013-08-27T12:30",-2,null,null,null,null],
["CDISCPILOT01","FT","CDISC003",119,"AVL0217","AVL02-List A Intrusions","AVLT-REY","FORM 1","2","2",2,"Y",6,2,"SCREENING 2","SCREENING","2013-08-27T12:30",-2,null,null,null,null],
["CDISCPILOT01","FT","CDISC003",120,"AVL0201","AVL02-List A Word 1","AVLT-REY","FORM 1","RECALLED","RECALLED",null,"Y",7,2,"SCREENING 2","SCREENING","2013-08-27T13:00",-2,"30 MIN POST",1,"PT30M","LIST A RECALL 6"],
["CDISCPILOT01","FT","CDISC003",121,"AVL0202","AVL02-List A Word 2","AVLT-REY","FORM 1","RECALLED","RECALLED",null,"Y",7,2,"SCREENING 2","SCREENING","2013-08-27T13:00",-2,"30 MIN POST",1,"PT30M","LIST A RECALL 6"],
["CDISCPILOT01","FT","CDISC003",122,"AVL0203","AVL02-List A Word 3","AVLT-REY","FORM 1","RECALLED","RECALLED",null,"Y",7,2,"SCREENING 2","SCREENING","2013-08-27T13:00",-2,"30 MIN POST",1,"PT30M","LIST A RECALL 6"],
["CDISCPILOT01","FT","CDISC003",123,"AVL0204","AVL02-List A Word 4","AVLT-REY","FORM 1","RECALLED","RECALLED",null,"Y",7,2,"SCREENING 2","SCREENING","2013-08-27T13:00",-2,"30 MIN POST",1,"PT30M","LIST A RECALL 6"],
["CDISCPILOT01","FT","CDISC003",124,"AVL0205","AVL02-List A Word 5","AVLT-REY","FORM 1","RECALLED","RECALLED",null,"Y",7,2,"SCREENING 2","SCREENING","2013-08-27T13:00",-2,"30 MIN POST",1,"PT30M","LIST A RECALL 6"],
["CDISCPILOT01","FT","CDISC003",125,"AVL0206","AVL02-List A Word 6","AVLT-REY","FORM 1","RECALLED","RECALLED",null,"Y",7,2,"SCREENING 2","SCREENING","2013-08-27T13:00",-2,"30 MIN POST",1,"PT30M","LIST A RECALL 6"],
["CDISCPILOT01","FT","CDISC003",126,"AVL0207","AVL02-List A Word 7","AVLT-REY","FORM 1","NOT RECALLED","NOT RECALLED",null,"Y",7,2,"SCREENING 2","SCREENING","2013-08-27T13:00",-2,"30 MIN POST",1,"PT30M","LIST A RECALL 6"],
["CDISCPILOT01","FT","CDISC003",127,"AVL0208","AVL02-List A Word 8","AVLT-REY","FORM 1","NOT RECALLED","NOT RECALLED",null,"Y",7,2,"SCREENING 2","SCREENING","2013-08-27T13:00",-2,"30 MIN POST",1,"PT30M","LIST A RECALL 6"],
["CDISCPILOT01","FT","CDISC003",128,"AVL0209","AVL02-List A Word 9","AVLT-REY","FORM 1","RECALLED","RECALLED",null,"Y",7,2,"SCREENING 2","SCREENING","2013-08-27T13:00",-2,"30 MIN POST",1,"PT30M","LIST A RECALL 6"],
["CDISCPILOT01","FT","CDISC003",129,"AVL0210","AVL02-List A Word 10","AVLT-REY","FORM 1","RECALLED","RECALLED",null,"Y",7,2,"SCREENING 2","SCREENING","2013-08-27T13:00",-2,"30 MIN POST",1,"PT30M","LIST A RECALL 6"],
["CDISCPILOT01","FT","CDISC003",130,"AVL0211","AVL02-List A Word 11","AVLT-REY","FORM 1","RECALLED","RECALLED",null,"Y",7,2,"SCREENING 2","SCREENING","2013-08-27T13:00",-2,"30 MIN POST",1,"PT30M","LIST A RECALL 6"],
["CDISCPILOT01","FT","CDISC003",131,"AVL0212","AVL02-List A Word 12","AVLT-REY","FORM 1","RECALLED","RECALLED",null,"Y",7,2,"SCREENING 2","SCREENING","2013-08-27T13:00",-2,"30 MIN POST",1,"PT30M","LIST A RECALL 6"],
["CDISCPILOT01","FT","CDISC003",132,"AVL0213","AVL02-List A Word 13","AVLT-REY","FORM 1","RECALLED","RECALLED",null,"Y",7,2,"SCREENING 2","SCREENING","2013-08-27T13:00",-2,"30 MIN POST",1,"PT30M","LIST A RECALL 6"],
["CDISCPILOT01","FT","CDISC003",133,"AVL0214","AVL02-List A Word 14","AVLT-REY","FORM 1","NOT RECALLED","NOT RECALLED",null,"Y",7,2,"SCREENING 2","SCREENING","2013-08-27T13:00",-2,"30 MIN POST",1,"PT30M","LIST A RECALL 6"],
["CDISCPILOT01","FT","CDISC003",134,"AVL0215","AVL02-List A Word 15","AVLT-REY","FORM 1","NOT RECALLED","NOT RECALLED",null,"Y",7,2,"SCREENING 2","SCREENING","2013-08-27T13:00",-2,"30 MIN POST",1,"PT30M","LIST A RECALL 6"],
["CDISCPILOT01","FT","CDISC003",135,"AVL0216","AVL02-List A Total","AVLT-REY","FORM 1","11","11",11,"Y",7,2,"SCREENING 2","SCREENING","2013-08-27T13:00",-2,"30 MIN POST",1,"PT30M","LIST A RECALL 6"],
["CDISCPILOT01","FT","CDISC003",136,"AVL0217","AVL02-List A Intrusions","AVLT-REY","FORM 1","1","1",1,"Y",7,2,"SCREENING 2","SCREENING","2013-08-27T13:00",-2,"30 MIN POST",1,"PT30M","LIST A RECALL 6"],
["CDISCPILOT01","FT","CDISC003",137,"AVL0201","AVL02-List A Word 1","AVLT-REY","FORM 1","RECALLED","RECALLED",null,null,1,8,"WEEK 8","TREATMENT","2013-10-22T12:00",55,null,null,null,null],
["CDISCPILOT01","FT","CDISC003",138,"AVL0202","AVL02-List A Word 2","AVLT-REY","FORM 1","RECALLED","RECALLED",null,null,1,8,"WEEK 8","TREATMENT","2013-10-22T12:00",55,null,null,null,null],
["CDISCPILOT01","FT","CDISC003",139,"AVL0203","AVL02-List A Word 3","AVLT-REY","FORM 1","RECALLED","RECALLED",null,null,1,8,"WEEK 8","TREATMENT","2013-10-22T12:00",55,null,null,null,null],
["CDISCPILOT01","FT","CDISC003",140,"AVL0204","AVL02-List A Word 4","AVLT-REY","FORM 1","RECALLED","RECALLED",null,null,1,8,"WEEK 8","TREATMENT","2013-10-22T12:00",55,null,null,null,null],
["CDISCPILOT01","FT","CDISC003",141,"AVL0205","AVL02-List A Word 5","AVLT-REY","FORM 1","RECALLED","RECALLED",null,null,1,8,"WEEK 8","TREATMENT","2013-10-22T12:00",55,null,null,null,null],
["CDISCPILOT01","FT","CDISC003",142,"AVL0206","AVL02-List A Word 6","AVLT-REY","FORM 1","RECALLED","RECALLED",null,null,1,8,"WEEK 8","TREATMENT","2013-10-22T12:00",55,null,null,null,null],
["CDISCPILOT01","FT","CDISC003",143,"AVL0207","AVL02-List A Word 7","AVLT-REY","FORM 1","RECALLED","RECALLED",null,null,1,8,"WEEK 8","TREATMENT","2013-10-22T12:00",55,null,null,null,null],
["CDISCPILOT01","FT","CDISC003",144,"AVL0208","AVL02-List A Word 8","AVLT-REY","FORM 1","RECALLED","RECALLED",null,null,1,8,"WEEK 8","TREATMENT","2013-10-22T12:00",55,null,null,null,null],
["CDISCPILOT01","FT","CDISC003",145,"AVL0209","AVL02-List A Word 9","AVLT-REY","FORM 1","RECALLED","RECALLED",null,null,1,8,"WEEK 8","TREATMENT","2013-10-22T12:00",55,null,null,null,null],
["CDISCPILOT01","FT","CDISC003",146,"AVL0210","AVL02-List A Word 10","AVLT-REY","FORM 1","RECALLED","RECALLED",null,null,1,8,"WEEK 8","TREATMENT","2013-10-22T12:00",55,null,null,null,null],
["CDISCPILOT01","FT","CDISC003",147,"AVL0211","AVL02-List A Word 11","AVLT-REY","FORM 1","NOT RECALLED","NOT RECALLED",null,null,1,8,"WEEK 8","TREATMENT","2013-10-22T12:00",55,null,null,null,null],
["CDISCPILOT01","FT","CDISC003",148,"AVL0212","AVL02-List A Word 12","AVLT-REY","FORM 1","NOT RECALLED","NOT RECALLED",null,null,1,8,"WEEK 8","TREATMENT","2013-10-22T12:00",55,null,null,null,null],
["CDISCPILOT01","FT","CDISC003",149,"AVL0213","AVL02-List A Word 13","AVLT-REY","FORM 1","NOT RECALLED","NOT RECALLED",null,null,1,8,"WEEK 8","TREATMENT","2013-10-22T12:00",55,null,null,null,null],
["CDISCPILOT01","FT","CDISC003",150,"AVL0214","AVL02-List A Word 14","AVLT-REY","FORM 1","NOT RECALLED","NOT RECALLED",null,null,1,8,"WEEK 8","TREATMENT","2013-10-22T12:00",55,null,null,null,null],
["CDISCPILOT01","FT","CDISC003",151,"AVL0215","AVL02-List A Word 15","AVLT-REY","FORM 1","NOT RECALLED","NOT RECALLED",null,null,1,8,"WEEK 8","TREATMENT","2013-10-22T12:00",55,null,null,null,null],
["CDISCPILOT01","FT","CDISC003",152,"AVL0216","AVL02-List A Total","AVLT-REY","FORM 1","10","10",10,null,1,8,"WEEK 8","TREATMENT","2013-10-22T12:00",55,null,null,null,null],
["CDISCPILOT01","FT","CDISC003",153,"AVL0217","AVL02-List A Intrusions","AVLT-REY","FORM 1","2","2",2,null,1,8,"WEEK 8","TREATMENT","2013-10-22T12:00",55,null,null,null,null],
["CDISCPILOT01","FT","CDISC003",154,"AVL0201","AVL02-List A Word 1","AVLT-REY","FORM 1","RECALLED","RECALLED",null,null,2,8,"WEEK 8","TREATMENT","2013-10-22T12:05",55,null,null,null,null],
["CDISCPILOT01","FT","CDISC003",155,"AVL0202","AVL02-List A Word 2","AVLT-REY","FORM 1","RECALLED","RECALLED",null,null,2,8,"WEEK 8","TREATMENT","2013-10-22T12:05",55,null,null,null,null],
["CDISCPILOT01","FT","CDISC003",156,"AVL0203","AVL02-List A Word 3","AVLT-REY","FORM 1","RECALLED","RECALLED",null,null,2,8,"WEEK 8","TREATMENT","2013-10-22T12:05",55,null,null,null,null],
["CDISCPILOT01","FT","CDISC003",157,"AVL0204","AVL02-List A Word 4","AVLT-REY","FORM 1","RECALLED","RECALLED",null,null,2,8,"WEEK 8","TREATMENT","2013-10-22T12:05",55,null,null,null,null],
["CDISCPILOT01","FT","CDISC003",158,"AVL0205","AVL02-List A Word 5","AVLT-REY","FORM 1","RECALLED","RECALLED",null,null,2,8,"WEEK 8","TREATMENT","2013-10-22T12:05",55,null,null,null,null],
["CDISCPILOT01","FT","CDISC003",159,"AVL0206","AVL02-List A Word 6","AVLT-REY","FORM 1","RECALLED","RECALLED",null,null,2,8,"WEEK 8","TREATMENT","2013-10-22T12:05",55,null,null,null,null],
["CDISCPILOT01","FT","CDISC003",160,"AVL0207","AVL02-List A Word 7","AVLT-REY","FORM 1","RECALLED","RECALLED",null,null,2,8,"WEEK 8","TREATMENT","2013-10-22T12:05",55,null,null,null,null],
["CDISCPILOT01","FT","CDISC003",161,"AVL0208","AVL02-List A Word 8","AVLT-REY","FORM 1","RECALLED","RECALLED",null,null,2,8,"WEEK 8","TREATMENT","2013-10-22T12:05",55,null,null,null,null],
["CDISCPILOT01","FT","CDISC003",162,"AVL0209","AVL02-List A Word 9","AVLT-REY","FORM 1","RECALLED","RECALLED",null,null,2,8,"WEEK 8","TREATMENT","2013-10-22T12:05",55,null,null,null,null],
["CDISCPILOT01","FT","CDISC003",163,"AVL0210","AVL02-List A Word 10","AVLT-REY","FORM 1","RECALLED","RECALLED",null,null,2,8,"WEEK 8","TREATMENT","2013-10-22T12:05",55,null,null,null,null],
["CDISCPILOT01","FT","CDISC003",164,"AVL0211","AVL02-List A Word 11","AVLT-REY","FORM 1","RECALLED","RECALLED",null,null,2,8,"WEEK 8","TREATMENT","2013-10-22T12:05",55,null,null,null,null],
["CDISCPILOT01","FT","CDISC003",165,"AVL0212","AVL02-List A Word 12","AVLT-REY","FORM 1","NOT RECALLED","NOT RECALLED",null,null,2,8,"WEEK 8","TREATMENT","2013-10-22T12:05",55,null,null,null,null],
["CDISCPILOT01","FT","CDISC003",166,"AVL0213","AVL02-List A Word 13","AVLT-REY","FORM 1","NOT RECALLED","NOT RECALLED",null,null,2,8,"WEEK 8","TREATMENT","2013-10-22T12:05",55,null,null,null,null],
["CDISCPILOT01","FT","CDISC003",167,"AVL0214","AVL02-List A Word 14","AVLT-REY","FORM 1","NOT RECALLED","NOT RECALLED",null,null,2,8,"WEEK 8","TREATMENT","2013-10-22T12:05",55,null,null,null,null],
["CDISCPILOT01","FT","CDISC003",168,"AVL0215","AVL02-List A Word 15","AVLT-REY","FORM 1","NOT RECALLED","NOT RECALLED",null,null,2,8,"WEEK 8","TREATMENT","2013-10-22T12:05",55,null,null,null,null],
["CDISCPILOT01","FT","CDISC003",169,"AVL0216","AVL02-List A Total","AVLT-REY","FORM 1","11","11",11,null,2,8,"WEEK 8","TREATMENT","2013-10-22T12:05",55,null,null,null,null],
["CDISCPILOT01","FT","CDISC003",170,"AVL0217","AVL02-List A Intrusions","AVLT-REY","FORM 1","1","1",1,null,2,8,"WEEK 8","TREATMENT","2013-10-22T12:05",55,null,null,null,null],
["CDISCPILOT01","FT","CDISC003",171,"AVL0201","AVL02-List A Word 1","AVLT-REY","FORM 1","RECALLED","RECALLED",null,null,3,8,"WEEK 8","TREATMENT","2013-10-22T12:10",55,null,null,null,null],
["CDISCPILOT01","FT","CDISC003",172,"AVL0202","AVL02-List A Word 2","AVLT-REY","FORM 1","RECALLED","RECALLED",null,null,3,8,"WEEK 8","TREATMENT","2013-10-22T12:10",55,null,null,null,null],
["CDISCPILOT01","FT","CDISC003",173,"AVL0203","AVL02-List A Word 3","AVLT-REY","FORM 1","RECALLED","RECALLED",null,null,3,8,"WEEK 8","TREATMENT","2013-10-22T12:10",55,null,null,null,null],
["CDISCPILOT01","FT","CDISC003",174,"AVL0204","AVL02-List A Word 4","AVLT-REY","FORM 1","RECALLED","RECALLED",null,null,3,8,"WEEK 8","TREATMENT","2013-10-22T12:10",55,null,null,null,null],
["CDISCPILOT01","FT","CDISC003",175,"AVL0205","AVL02-List A Word 5","AVLT-REY","FORM 1","RECALLED","RECALLED",null,null,3,8,"WEEK 8","TREATMENT","2013-10-22T12:10",55,null,null,null,null],
["CDISCPILOT01","FT","CDISC003",176,"AVL0206","AVL02-List A Word 6","AVLT-REY","FORM 1","RECALLED","RECALLED",null,null,3,8,"WEEK 8","TREATMENT","2013-10-22T12:10",55,null,null,null,null],
["CDISCPILOT01","FT","CDISC003",177,"AVL0207","AVL02-List A Word 7","AVLT-REY","FORM 1","RECALLED","RECALLED",null,null,3,8,"WEEK 8","TREATMENT","2013-10-22T12:10",55,null,null,null,null],
["CDISCPILOT01","FT","CDISC003",178,"AVL0208","AVL02-List A Word 8","AVLT-REY","FORM 1","RECALLED","RECALLED",null,null,3,8,"WEEK 8","TREATMENT","2013-10-22T12:10",55,null,null,null,null],
["CDISCPILOT01","FT","CDISC003",179,"AVL0209","AVL02-List A Word 9","AVLT-REY","FORM 1","NOT RECALLED","NOT RECALLED",null,null,3,8,"WEEK 8","TREATMENT","2013-10-22T12:10",55,null,null,null,null],
["CDISCPILOT01","FT","CDISC003",180,"AVL0210","AVL02-List A Word 10","AVLT-REY","FORM 1","RECALLED","RECALLED",null,null,3,8,"WEEK 8","TREATMENT","2013-10-22T12:10",55,null,null,null,null],
["CDISCPILOT01","FT","CDISC003",181,"AVL0211","AVL02-List A Word 11","AVLT-REY","FORM 1","RECALLED","RECALLED",null,null,3,8,"WEEK 8","TREATMENT","2013-10-22T12:10",55,null,null,null,null],
["CDISCPILOT01","FT","CDISC003",182,"AVL0212","AVL02-List A Word 12","AVLT-REY","FORM 1","RECALLED","RECALLED",null,null,3,8,"WEEK 8","TREATMENT","2013-10-22T12:10",55,null,null,null,null],
["CDISCPILOT01","FT","CDISC003",183,"AVL0213","AVL02-List A Word 13","AVLT-REY","FORM 1","RECALLED","RECALLED",null,null,3,8,"WEEK 8","TREATMENT","2013-10-22T12:10",55,null,null,null,null],
["CDISCPILOT01","FT","CDISC003",184,"AVL0214","AVL02-List A Word 14","AVLT-REY","FORM 1","NOT RECALLED","NOT RECALLED",null,null,3,8,"WEEK 8","TREATMENT","2013-10-22T12:10",55,null,null,null,null],
["CDISCPILOT01","FT","CDISC003",185,"AVL0215","AVL02-List A Word 15","AVLT-REY","FORM 1","NOT RECALLED","NOT RECALLED",null,null,3,8,"WEEK 8","TREATMENT","2013-10-22T12:10",55,null,null,null,null],
["CDISCPILOT01","FT","CDISC003",186,"AVL0216","AVL02-List A Total","AVLT-REY","FORM 1","12","12",12,null,3,8,"WEEK 8","TREATMENT","2013-10-22T12:10",55,null,null,null,null],
["CDISCPILOT01","FT","CDISC003",187,"AVL0217","AVL02-List A Intrusions","AVLT-REY","FORM 1","0","0",0,null,3,8,"WEEK 8","TREATMENT","2013-10-22T12:10",55,null,null,null,null],
["CDISCPILOT01","FT","CDISC003",188,"AVL0201","AVL02-List A Word 1","AVLT-REY","FORM 1","RECALLED","RECALLED",null,null,4,8,"WEEK 8","TREATMENT","2013-10-22T12:15",55,null,null,null,null],
["CDISCPILOT01","FT","CDISC003",189,"AVL0202","AVL02-List A Word 2","AVLT-REY","FORM 1","RECALLED","RECALLED",null,null,4,8,"WEEK 8","TREATMENT","2013-10-22T12:15",55,null,null,null,null],
["CDISCPILOT01","FT","CDISC003",190,"AVL0203","AVL02-List A Word 3","AVLT-REY","FORM 1","RECALLED","RECALLED",null,null,4,8,"WEEK 8","TREATMENT","2013-10-22T12:15",55,null,null,null,null],
["CDISCPILOT01","FT","CDISC003",191,"AVL0204","AVL02-List A Word 4","AVLT-REY","FORM 1","RECALLED","RECALLED",null,null,4,8,"WEEK 8","TREATMENT","2013-10-22T12:15",55,null,null,null,null],
["CDISCPILOT01","FT","CDISC003",192,"AVL0205","AVL02-List A Word 5","AVLT-REY","FORM 1","RECALLED","RECALLED",null,null,4,8,"WEEK 8","TREATMENT","2013-10-22T12:15",55,null,null,null,null],
["CDISCPILOT01","FT","CDISC003",193,"AVL0206","AVL02-List A Word 6","AVLT-REY","FORM 1","RECALLED","RECALLED",null,null,4,8,"WEEK 8","TREATMENT","2013-10-22T12:15",55,null,null,null,null],
["CDISCPILOT01","FT","CDISC003",194,"AVL0207","AVL02-List A Word 7","AVLT-REY","FORM 1","RECALLED","RECALLED",null,null,4,8,"WEEK 8","TREATMENT","2013-10-22T12:15",55,null,null,null,null],
["CDISCPILOT01","FT","CDISC003",195,"AVL0208","AVL02-List A Word 8","AVLT-REY","FORM 1","RECALLED","RECALLED",null,null,4,8,"WEEK 8","TREATMENT","2013-10-22T12:15",55,null,null,null,null],
["CDISCPILOT01","FT","CDISC003",196,"AVL0209","AVL02-List A Word 9","AVLT-REY","FORM 1","RECALLED","RECALLED",null,null,4,8,"WEEK 8","TREATMENT","2013-10-22T12:15",55,null,null,null,null],
["CDISCPILOT01","FT","CDISC003",197,"AVL0210","AVL02-List A Word 10","AVLT-REY","FORM 1","RECALLED","RECALLED",null,null,4,8,"WEEK 8","TREATMENT","2013-10-22T12:15",55,null,null,null,null],
["CDISCPILOT01","FT","CDISC003",198,"AVL0211","AVL02-List A Word 11","AVLT-REY","FORM 1","RECALLED","RECALLED",null,null,4,8,"WEEK 8","TREATMENT","2013-10-22T12:15",55,null,null,null,null],
["CDISCPILOT01","FT","CDISC003",199,"AVL0212","AVL02-List A Word 12","AVLT-REY","FORM 1","RECALLED","RECALLED",null,null,4,8,"WEEK 8","TREATMENT","2013-10-22T12:15",55,null,null,null,null],
["CDISCPILOT01","FT","CDISC003",200,"AVL0213","AVL02-List A Word 13","AVLT-REY","FORM 1","RECALLED","RECALLED",null,null,4,8,"WEEK 8","TREATMENT","2013-10-22T12:15",55,null,null,null,null],
["CDISCPILOT01","FT","CDISC003",201,"AVL0214","AVL02-List A Word 14","AVLT-REY","FORM 1","NOT RECALLED","NOT RECALLED",null,null,4,8,"WEEK 8","TREATMENT","2013-10-22T12:15",55,null,null,null,null],
["CDISCPILOT01","FT","CDISC003",202,"AVL0215","AVL02-List A Word 15","AVLT-REY","FORM 1","NOT RECALLED","NOT RECALLED",null,null,4,8,"WEEK 8","TREATMENT","2013-10-22T12:15",55,null,null,null,null],
["CDISCPILOT01","FT","CDISC003",203,"AVL0216","AVL02-List A Total","AVLT-REY","FORM 1","13","13",13,null,4,8,"WEEK 8","TREATMENT","2013-10-22T12:15",55,null,null,null,null],
["CDISCPILOT01","FT","CDISC003",204,"AVL0217","AVL02-List A Intrusions","AVLT-REY","FORM 1","0","0",0,null,4,8,"WEEK 8","TREATMENT","2013-10-22T12:15",55,null,null,null,null],
["CDISCPILOT01","FT","CDISC003",205,"AVL0201","AVL02-List A Word 1","AVLT-REY","FORM 1","RECALLED","RECALLED",null,null,5,8,"WEEK 8","TREATMENT","2013-10-22T12:20",55,null,null,null,null],
["CDISCPILOT01","FT","CDISC003",206,"AVL0202","AVL02-List A Word 2","AVLT-REY","FORM 1","RECALLED","RECALLED",null,null,5,8,"WEEK 8","TREATMENT","2013-10-22T12:20",55,null,null,null,null],
["CDISCPILOT01","FT","CDISC003",207,"AVL0203","AVL02-List A Word 3","AVLT-REY","FORM 1","RECALLED","RECALLED",null,null,5,8,"WEEK 8","TREATMENT","2013-10-22T12:20",55,null,null,null,null],
["CDISCPILOT01","FT","CDISC003",208,"AVL0204","AVL02-List A Word 4","AVLT-REY","FORM 1","RECALLED","RECALLED",null,null,5,8,"WEEK 8","TREATMENT","2013-10-22T12:20",55,null,null,null,null],
["CDISCPILOT01","FT","CDISC003",209,"AVL0205","AVL02-List A Word 5","AVLT-REY","FORM 1","RECALLED","RECALLED",null,null,5,8,"WEEK 8","TREATMENT","2013-10-22T12:20",55,null,null,null,null],
["CDISCPILOT01","FT","CDISC003",210,"AVL0206","AVL02-List A Word 6","AVLT-REY","FORM 1","RECALLED","RECALLED",null,null,5,8,"WEEK 8","TREATMENT","2013-10-22T12:20",55,null,null,null,null],
["CDISCPILOT01","FT","CDISC003",211,"AVL0207","AVL02-List A Word 7","AVLT-REY","FORM 1","RECALLED","RECALLED",null,null,5,8,"WEEK 8","TREATMENT","2013-10-22T12:20",55,null,null,null,null],
["CDISCPILOT01","FT","CDISC003",212,"AVL0208","AVL02-List A Word 8","AVLT-REY","FORM 1","RECALLED","RECALLED",null,null,5,8,"WEEK 8","TREATMENT","2013-10-22T12:20",55,null,null,null,null],
["CDISCPILOT01","FT","CDISC003",213,"AVL0209","AVL02-List A Word 9","AVLT-REY","FORM 1","RECALLED","RECALLED",null,null,5,8,"WEEK 8","TREATMENT","2013-10-22T12:20",55,null,null,null,null],
["CDISCPILOT01","FT","CDISC003",214,"AVL0210","AVL02-List A Word 10","AVLT-REY","FORM 1","RECALLED","RECALLED",null,null,5,8,"WEEK 8","TREATMENT","2013-10-22T12:20",55,null,null,null,null],
["CDISCPILOT01","FT","CDISC003",215,"AVL0211","AVL02-List A Word 11","AVLT-REY","FORM 1","RECALLED","RECALLED",null,null,5,8,"WEEK 8","TREATMENT","2013-10-22T12:20",55,null,null,null,null],
["CDISCPILOT01","FT","CDISC003",216,"AVL0212","AVL02-List A Word 12","AVLT-REY","FORM 1","RECALLED","RECALLED",null,null,5,8,"WEEK 8","TREATMENT","2013-10-22T12:20",55,null,null,null,null],
["CDISCPILOT01","FT","CDISC003",217,"AVL0213","AVL02-List A Word 13","AVLT-REY","FORM 1","RECALLED","RECALLED",null,null,5,8,"WEEK 8","TREATMENT","2013-10-22T12:20",55,null,null,null,null],
["CDISCPILOT01","FT","CDISC003",218,"AVL0214","AVL02-List A Word 14","AVLT-REY","FORM 1","RECALLED","RECALLED",null,null,5,8,"WEEK 8","TREATMENT","2013-10-22T12:20",55,null,null,null,null],
["CDISCPILOT01","FT","CDISC003",219,"AVL0215","AVL02-List A Word 15","AVLT-REY","FORM 1","NOT RECALLED","NOT RECALLED",null,null,5,8,"WEEK 8","TREATMENT","2013-10-22T12:20",55,null,null,null,null],
["CDISCPILOT01","FT","CDISC003",220,"AVL0216","AVL02-List A Total","AVLT-REY","FORM 1","14","14",14,null,5,8,"WEEK 8","TREATMENT","2013-10-22T12:20",55,null,null,null,null],
["CDISCPILOT01","FT","CDISC003",221,"AVL0217","AVL02-List A Intrusions","AVLT-REY","FORM 1","0","0",0,null,5,8,"WEEK 8","TREATMENT","2013-10-22T12:20",55,null,null,null,null],
["CDISCPILOT01","FT","CDISC003",222,"AVL0218","AVL02-List B Word 1","AVLT-REY","FORM 1","RECALLED","RECALLED",null,null,null,8,"WEEK 8","TREATMENT","2013-10-22T12:25",55,null,null,null,null],
["CDISCPILOT01","FT","CDISC003",223,"AVL0219","AVL02-List B Word 2","AVLT-REY","FORM 1","RECALLED","RECALLED",null,null,null,8,"WEEK 8","TREATMENT","2013-10-22T12:25",55,null,null,null,null],
["CDISCPILOT01","FT","CDISC003",224,"AVL0220","AVL02-List B Word 3","AVLT-REY","FORM 1","RECALLED","RECALLED",null,null,null,8,"WEEK 8","TREATMENT","2013-10-22T12:25",55,null,null,null,null],
["CDISCPILOT01","FT","CDISC003",225,"AVL0221","AVL02-List B Word 4","AVLT-REY","FORM 1","RECALLED","RECALLED",null,null,null,8,"WEEK 8","TREATMENT","2013-10-22T12:25",55,null,null,null,null],
["CDISCPILOT01","FT","CDISC003",226,"AVL0222","AVL02-List B Word 5","AVLT-REY","FORM 1","RECALLED","RECALLED",null,null,null,8,"WEEK 8","TREATMENT","2013-10-22T12:25",55,null,null,null,null],
["CDISCPILOT01","FT","CDISC003",227,"AVL0223","AVL02-List B Word 6","AVLT-REY","FORM 1","RECALLED","RECALLED",null,null,null,8,"WEEK 8","TREATMENT","2013-10-22T12:25",55,null,null,null,null],
["CDISCPILOT01","FT","CDISC003",228,"AVL0224","AVL02-List B Word 7","AVLT-REY","FORM 1","RECALLED","RECALLED",null,null,null,8,"WEEK 8","TREATMENT","2013-10-22T12:25",55,null,null,null,null],
["CDISCPILOT01","FT","CDISC003",229,"AVL0225","AVL02-List B Word 8","AVLT-REY","FORM 1","RECALLED","RECALLED",null,null,null,8,"WEEK 8","TREATMENT","2013-10-22T12:25",55,null,null,null,null],
["CDISCPILOT01","FT","CDISC003",230,"AVL0226","AVL02-List B Word 9","AVLT-REY","FORM 1","RECALLED","RECALLED",null,null,null,8,"WEEK 8","TREATMENT","2013-10-22T12:25",55,null,null,null,null],
["CDISCPILOT01","FT","CDISC003",231,"AVL0227","AVL02-List B Word 10","AVLT-REY","FORM 1","NOT RECALLED","NOT RECALLED",null,null,null,8,"WEEK 8","TREATMENT","2013-10-22T12:25",55,null,null,null,null],
["CDISCPILOT01","FT","CDISC003",232,"AVL0228","AVL02-List B Word 11","AVLT-REY","FORM 1","NOT RECALLED","NOT RECALLED",null,null,null,8,"WEEK 8","TREATMENT","2013-10-22T12:25",55,null,null,null,null],
["CDISCPILOT01","FT","CDISC003",233,"AVL0229","AVL02-List B Word 12","AVLT-REY","FORM 1","NOT RECALLED","NOT RECALLED",null,null,null,8,"WEEK 8","TREATMENT","2013-10-22T12:25",55,null,null,null,null],
["CDISCPILOT01","FT","CDISC003",234,"AVL0230","AVL02-List B Word 13","AVLT-REY","FORM 1","RECALLED","RECALLED",null,null,null,8,"WEEK 8","TREATMENT","2013-10-22T12:25",55,null,null,null,null],
["CDISCPILOT01","FT","CDISC003",235,"AVL0231","AVL02-List B Word 14","AVLT-REY","FORM 1","NOT RECALLED","NOT RECALLED",null,null,null,8,"WEEK 8","TREATMENT","2013-10-22T12:25",55,null,null,null,null],
["CDISCPILOT01","FT","CDISC003",236,"AVL0232","AVL02-List B Word 15","AVLT-REY","FORM 1","NOT RECALLED","NOT RECALLED",null,null,null,8,"WEEK 8","TREATMENT","2013-10-22T12:25",55,null,null,null,null],
["CDISCPILOT01","FT","CDISC003",237,"AVL0233","AVL02- List B Total","AVLT-REY","FORM 1","10","10",10,null,null,8,"WEEK 8","TREATMENT","2013-10-22T12:25",55,null,null,null,null],
["CDISCPILOT01","FT","CDISC003",238,"AVL0234","AVL02-List B Intrusions","AVLT-REY","FORM 1","1","1",1,null,null,8,"WEEK 8","TREATMENT","2013-10-22T12:25",55,null,null,null,null],
["CDISCPILOT01","FT","CDISC003",239,"AVL0201","AVL02-List A Word 1","AVLT-REY","FORM 1","RECALLED","RECALLED",null,null,6,8,"WEEK 8","TREATMENT","2013-10-22T12:30",55,null,null,null,null],
["CDISCPILOT01","FT","CDISC003",240,"AVL0202","AVL02-List A Word 2","AVLT-REY","FORM 1","RECALLED","RECALLED",null,null,6,8,"WEEK 8","TREATMENT","2013-10-22T12:30",55,null,null,null,null],
["CDISCPILOT01","FT","CDISC003",241,"AVL0203","AVL02-List A Word 3","AVLT-REY","FORM 1","RECALLED","RECALLED",null,null,6,8,"WEEK 8","TREATMENT","2013-10-22T12:30",55,null,null,null,null],
["CDISCPILOT01","FT","CDISC003",242,"AVL0204","AVL02-List A Word 4","AVLT-REY","FORM 1","RECALLED","RECALLED",null,null,6,8,"WEEK 8","TREATMENT","2013-10-22T12:30",55,null,null,null,null],
["CDISCPILOT01","FT","CDISC003",243,"AVL0205","AVL02-List A Word 5","AVLT-REY","FORM 1","RECALLED","RECALLED",null,null,6,8,"WEEK 8","TREATMENT","2013-10-22T12:30",55,null,null,null,null],
["CDISCPILOT01","FT","CDISC003",244,"AVL0206","AVL02-List A Word 6","AVLT-REY","FORM 1","RECALLED","RECALLED",null,null,6,8,"WEEK 8","TREATMENT","2013-10-22T12:30",55,null,null,null,null],
["CDISCPILOT01","FT","CDISC003",245,"AVL0207","AVL02-List A Word 7","AVLT-REY","FORM 1","RECALLED","RECALLED",null,null,6,8,"WEEK 8","TREATMENT","2013-10-22T12:30",55,null,null,null,null],
["CDISCPILOT01","FT","CDISC003",246,"AVL0208","AVL02-List A Word 8","AVLT-REY","FORM 1","RECALLED","RECALLED",null,null,6,8,"WEEK 8","TREATMENT","2013-10-22T12:30",55,null,null,null,null],
["CDISCPILOT01","FT","CDISC003",247,"AVL0209","AVL02-List A Word 9","AVLT-REY","FORM 1","RECALLED","RECALLED",null,null,6,8,"WEEK 8","TREATMENT","2013-10-22T12:30",55,null,null,null,null],
["CDISCPILOT01","FT","CDISC003",248,"AVL0210","AVL02-List A Word 10","AVLT-REY","FORM 1","RECALLED","RECALLED",null,null,6,8,"WEEK 8","TREATMENT","2013-10-22T12:30",55,null,null,null,null],
["CDISCPILOT01","FT","CDISC003",249,"AVL0211","AVL02-List A Word 11","AVLT-REY","FORM 1","RECALLED","RECALLED",null,null,6,8,"WEEK 8","TREATMENT","2013-10-22T12:30",55,null,null,null,null],
["CDISCPILOT01","FT","CDISC003",250,"AVL0212","AVL02-List A Word 12","AVLT-REY","FORM 1","RECALLED","RECALLED",null,null,6,8,"WEEK 8","TREATMENT","2013-10-22T12:30",55,null,null,null,null],
["CDISCPILOT01","FT","CDISC003",251,"AVL0213","AVL02-List A Word 13","AVLT-REY","FORM 1","RECALLED","RECALLED",null,null,6,8,"WEEK 8","TREATMENT","2013-10-22T12:30",55,null,null,null,null],
["CDISCPILOT01","FT","CDISC003",252,"AVL0214","AVL02-List A Word 14","AVLT-REY","FORM 1","NOT RECALLED","NOT RECALLED",null,null,6,8,"WEEK 8","TREATMENT","2013-10-22T12:30",55,null,null,null,null],
["CDISCPILOT01","FT","CDISC003",253,"AVL0215","AVL02-List A Word 15","AVLT-REY","FORM 1","NOT RECALLED","NOT RECALLED",null,null,6,8,"WEEK 8","TREATMENT","2013-10-22T12:30",55,null,null,null,null],
["CDISCPILOT01","FT","CDISC003",254,"AVL0216","AVL02-List A Total","AVLT-REY","FORM 1","13","13",13,null,6,8,"WEEK 8","TREATMENT","2013-10-22T12:30",55,null,null,null,null],
["CDISCPILOT01","FT","CDISC003",255,"AVL0217","AVL02-List A Intrusions","AVLT-REY","FORM 1","0","0",0,null,6,8,"WEEK 8","TREATMENT","2013-10-22T12:30",55,null,null,null,null],
["CDISCPILOT01","FT","CDISC003",256,"AVL0201","AVL02-List A Word 1","AVLT-REY","FORM 1","RECALLED","RECALLED",null,null,7,8,"WEEK 8","TREATMENT","2013-10-22T13:00",55,"30 MIN POST",1,"PT30M","LIST A RECALL 6"],
["CDISCPILOT01","FT","CDISC003",257,"AVL0202","AVL02-List A Word 2","AVLT-REY","FORM 1","RECALLED","RECALLED",null,null,7,8,"WEEK 8","TREATMENT","2013-10-22T13:00",55,"30 MIN POST",1,"PT30M","LIST A RECALL 6"],
["CDISCPILOT01","FT","CDISC003",258,"AVL0203","AVL02-List A Word 3","AVLT-REY","FORM 1","RECALLED","RECALLED",null,null,7,8,"WEEK 8","TREATMENT","2013-10-22T13:00",55,"30 MIN POST",1,"PT30M","LIST A RECALL 6"],
["CDISCPILOT01","FT","CDISC003",259,"AVL0204","AVL02-List A Word 4","AVLT-REY","FORM 1","RECALLED","RECALLED",null,null,7,8,"WEEK 8","TREATMENT","2013-10-22T13:00",55,"30 MIN POST",1,"PT30M","LIST A RECALL 6"],
["CDISCPILOT01","FT","CDISC003",260,"AVL0205","AVL02-List A Word 5","AVLT-REY","FORM 1","RECALLED","RECALLED",null,null,7,8,"WEEK 8","TREATMENT","2013-10-22T13:00",55,"30 MIN POST",1,"PT30M","LIST A RECALL 6"],
["CDISCPILOT01","FT","CDISC003",261,"AVL0206","AVL02-List A Word 6","AVLT-REY","FORM 1","RECALLED","RECALLED",null,null,7,8,"WEEK 8","TREATMENT","2013-10-22T13:00",55,"30 MIN POST",1,"PT30M","LIST A RECALL 6"],
["CDISCPILOT01","FT","CDISC003",262,"AVL0207","AVL02-List A Word 7","AVLT-REY","FORM 1","RECALLED","RECALLED",null,null,7,8,"WEEK 8","TREATMENT","2013-10-22T13:00",55,"30 MIN POST",1,"PT30M","LIST A RECALL 6"],
["CDISCPILOT01","FT","CDISC003",263,"AVL0208","AVL02-List A Word 8","AVLT-REY","FORM 1","RECALLED","RECALLED",null,null,7,8,"WEEK 8","TREATMENT","2013-10-22T13:00",55,"30 MIN POST",1,"PT30M","LIST A RECALL 6"],
["CDISCPILOT01","FT","CDISC003",264,"AVL0209","AVL02-List A Word 9","AVLT-REY","FORM 1","RECALLED","RECALLED",null,null,7,8,"WEEK 8","TREATMENT","2013-10-22T13:00",55,"30 MIN POST",1,"PT30M","LIST A RECALL 6"],
["CDISCPILOT01","FT","CDISC003",265,"AVL0210","AVL02-List A Word 10","AVLT-REY","FORM 1","RECALLED","RECALLED",null,null,7,8,"WEEK 8","TREATMENT","2013-10-22T13:00",55,"30 MIN POST",1,"PT30M","LIST A RECALL 6"],
["CDISCPILOT01","FT","CDISC003",266,"AVL0211","AVL02-List A Word 11","AVLT-REY","FORM 1","RECALLED","RECALLED",null,null,7,8,"WEEK 8","TREATMENT","2013-10-22T13:00",55,"30 MIN POST",1,"PT30M","LIST A RECALL 6"],
["CDISCPILOT01","FT","CDISC003",267,"AVL0212","AVL02-List A Word 12","AVLT-REY","FORM 1","RECALLED","RECALLED",null,null,7,8,"WEEK 8","TREATMENT","2013-10-22T13:00",55,"30 MIN POST",1,"PT30M","LIST A RECALL 6"],
["CDISCPILOT01","FT","CDISC003",268,"AVL0213","AVL02-List A Word 13","AVLT-REY","FORM 1","NOT RECALLED","NOT RECALLED",null,null,7,8,"WEEK 8","TREATMENT","2013-10-22T13:00",55,"30 MIN POST",1,"PT30M","LIST A RECALL 6"],
["CDISCPILOT01","FT","CDISC003",269,"AVL0214","AVL02-List A Word 14","AVLT-REY","FORM 1","NOT RECALLED","NOT RECALLED",null,null,7,8,"WEEK 8","TREATMENT","2013-10-22T13:00",55,"30 MIN POST",1,"PT30M","LIST A RECALL 6"],
["CDISCPILOT01","FT","CDISC003",270,"AVL0215","AVL02-List A Word 15","AVLT-REY","FORM 1","NOT RECALLED","NOT RECALLED",null,null,7,8,"WEEK 8","TREATMENT","2013-10-22T13:00",55,"30 MIN POST",1,"PT30M","LIST A RECALL 6"],
["CDISCPILOT01","FT","CDISC003",271,"AVL0216","AVL02-List A Total","AVLT-REY","FORM 1","12","12",12,null,7,8,"WEEK 8","TREATMENT","2013-10-22T13:00",55,"30 MIN POST",1,"PT30M","LIST A RECALL 6"],
["CDISCPILOT01","FT","CDISC003",272,"AVL0217","AVL02-List A Intrusions","AVLT-REY","FORM 1","0","0",0,null,7,8,"WEEK 8","TREATMENT","2013-10-22T13:00",55,"30 MIN POST",1,"PT30M","LIST A RECALL 6"],
["CDISCPILOT01","FT","CDISC003",273,"AVL0201","AVL02-List A Word 1","AVLT-REY","FORM 1","RECALLED","RECALLED",null,null,1,9,"WEEK 12","TREATMENT","2013-11-05T12:00",69,null,null,null,null],
["CDISCPILOT01","FT","CDISC003",274,"AVL0202","AVL02-List A Word 2","AVLT-REY","FORM 1","RECALLED","RECALLED",null,null,1,9,"WEEK 12","TREATMENT","2013-11-05T12:00",69,null,null,null,null],
["CDISCPILOT01","FT","CDISC003",275,"AVL0203","AVL02-List A Word 3","AVLT-REY","FORM 1","RECALLED","RECALLED",null,null,1,9,"WEEK 12","TREATMENT","2013-11-05T12:00",69,null,null,null,null],
["CDISCPILOT01","FT","CDISC003",276,"AVL0204","AVL02-List A Word 4","AVLT-REY","FORM 1","RECALLED","RECALLED",null,null,1,9,"WEEK 12","TREATMENT","2013-11-05T12:00",69,null,null,null,null],
["CDISCPILOT01","FT","CDISC003",277,"AVL0205","AVL02-List A Word 5","AVLT-REY","FORM 1","RECALLED","RECALLED",null,null,1,9,"WEEK 12","TREATMENT","2013-11-05T12:00",69,null,null,null,null],
["CDISCPILOT01","FT","CDISC003",278,"AVL0206","AVL02-List A Word 6","AVLT-REY","FORM 1","RECALLED","RECALLED",null,null,1,9,"WEEK 12","TREATMENT","2013-11-05T12:00",69,null,null,null,null],
["CDISCPILOT01","FT","CDISC003",279,"AVL0207","AVL02-List A Word 7","AVLT-REY","FORM 1","NOT RECALLED","NOT RECALLED",null,null,1,9,"WEEK 12","TREATMENT","2013-11-05T12:00",69,null,null,null,null],
["CDISCPILOT01","FT","CDISC003",280,"AVL0208","AVL02-List A Word 8","AVLT-REY","FORM 1","RECALLED","RECALLED",null,null,1,9,"WEEK 12","TREATMENT","2013-11-05T12:00",69,null,null,null,null],
["CDISCPILOT01","FT","CDISC003",281,"AVL0209","AVL02-List A Word 9","AVLT-REY","FORM 1","RECALLED","RECALLED",null,null,1,9,"WEEK 12","TREATMENT","2013-11-05T12:00",69,null,null,null,null],
["CDISCPILOT01","FT","CDISC003",282,"AVL0210","AVL02-List A Word 10","AVLT-REY","FORM 1","NOT RECALLED","NOT RECALLED",null,null,1,9,"WEEK 12","TREATMENT","2013-11-05T12:00",69,null,null,null,null],
["CDISCPILOT01","FT","CDISC003",283,"AVL0211","AVL02-List A Word 11","AVLT-REY","FORM 1","NOT RECALLED","NOT RECALLED",null,null,1,9,"WEEK 12","TREATMENT","2013-11-05T12:00",69,null,null,null,null],
["CDISCPILOT01","FT","CDISC003",284,"AVL0212","AVL02-List A Word 12","AVLT-REY","FORM 1","NOT RECALLED","NOT RECALLED",null,null,1,9,"WEEK 12","TREATMENT","2013-11-05T12:00",69,null,null,null,null],
["CDISCPILOT01","FT","CDISC003",285,"AVL0213","AVL02-List A Word 13","AVLT-REY","FORM 1","NOT RECALLED","NOT RECALLED",null,null,1,9,"WEEK 12","TREATMENT","2013-11-05T12:00",69,null,null,null,null],
["CDISCPILOT01","FT","CDISC003",286,"AVL0214","AVL02-List A Word 14","AVLT-REY","FORM 1","NOT RECALLED","NOT RECALLED",null,null,1,9,"WEEK 12","TREATMENT","2013-11-05T12:00",69,null,null,null,null],
["CDISCPILOT01","FT","CDISC003",287,"AVL0215","AVL02-List A Word 15","AVLT-REY","FORM 1","NOT RECALLED","NOT RECALLED",null,null,1,9,"WEEK 12","TREATMENT","2013-11-05T12:00",69,null,null,null,null],
["CDISCPILOT01","FT","CDISC003",288,"AVL0216","AVL02-List A Total","AVLT-REY","FORM 1","8","8",8,null,1,9,"WEEK 12","TREATMENT","2013-11-05T12:00",69,null,null,null,null],
["CDISCPILOT01","FT","CDISC003",289,"AVL0217","AVL02-List A Intrusions","AVLT-REY","FORM 1","2","2",2,null,1,9,"WEEK 12","TREATMENT","2013-11-05T12:00",69,null,null,null,null],
["CDISCPILOT01","FT","CDISC003",290,"AVL0201","AVL02-List A Word 1","AVLT-REY","FORM 1","RECALLED","RECALLED",null,null,2,9,"WEEK 12","TREATMENT","2013-11-05T12:05",69,null,null,null,null],
["CDISCPILOT01","FT","CDISC003",291,"AVL0202","AVL02-List A Word 2","AVLT-REY","FORM 1","RECALLED","RECALLED",null,null,2,9,"WEEK 12","TREATMENT","2013-11-05T12:05",69,null,null,null,null],
["CDISCPILOT01","FT","CDISC003",292,"AVL0203","AVL02-List A Word 3","AVLT-REY","FORM 1","RECALLED","RECALLED",null,null,2,9,"WEEK 12","TREATMENT","2013-11-05T12:05",69,null,null,null,null],
["CDISCPILOT01","FT","CDISC003",293,"AVL0204","AVL02-List A Word 4","AVLT-REY","FORM 1","RECALLED","RECALLED",null,null,2,9,"WEEK 12","TREATMENT","2013-11-05T12:05",69,null,null,null,null],
["CDISCPILOT01","FT","CDISC003",294,"AVL0205","AVL02-List A Word 5","AVLT-REY","FORM 1","RECALLED","RECALLED",null,null,2,9,"WEEK 12","TREATMENT","2013-11-05T12:05",69,null,null,null,null],
["CDISCPILOT01","FT","CDISC003",295,"AVL0206","AVL02-List A Word 6","AVLT-REY","FORM 1","RECALLED","RECALLED",null,null,2,9,"WEEK 12","TREATMENT","2013-11-05T12:05",69,null,null,null,null],
["CDISCPILOT01","FT","CDISC003",296,"AVL0207","AVL02-List A Word 7","AVLT-REY","FORM 1","NOT RECALLED","NOT RECALLED",null,null,2,9,"WEEK 12","TREATMENT","2013-11-05T12:05",69,null,null,null,null],
["CDISCPILOT01","FT","CDISC003",297,"AVL0208","AVL02-List A Word 8","AVLT-REY","FORM 1","RECALLED","RECALLED",null,null,2,9,"WEEK 12","TREATMENT","2013-11-05T12:05",69,null,null,null,null],
["CDISCPILOT01","FT","CDISC003",298,"AVL0209","AVL02-List A Word 9","AVLT-REY","FORM 1","RECALLED","RECALLED",null,null,2,9,"WEEK 12","TREATMENT","2013-11-05T12:05",69,null,null,null,null],
["CDISCPILOT01","FT","CDISC003",299,"AVL0210","AVL02-List A Word 10","AVLT-REY","FORM 1","NOT RECALLED","NOT RECALLED",null,null,2,9,"WEEK 12","TREATMENT","2013-11-05T12:05",69,null,null,null,null],
["CDISCPILOT01","FT","CDISC003",300,"AVL0211","AVL02-List A Word 11","AVLT-REY","FORM 1","NOT RECALLED","NOT RECALLED",null,null,2,9,"WEEK 12","TREATMENT","2013-11-05T12:05",69,null,null,null,null],
["CDISCPILOT01","FT","CDISC003",301,"AVL0212","AVL02-List A Word 12","AVLT-REY","FORM 1","NOT RECALLED","NOT RECALLED",null,null,2,9,"WEEK 12","TREATMENT","2013-11-05T12:05",69,null,null,null,null],
["CDISCPILOT01","FT","CDISC003",302,"AVL0213","AVL02-List A Word 13","AVLT-REY","FORM 1","NOT RECALLED","NOT RECALLED",null,null,2,9,"WEEK 12","TREATMENT","2013-11-05T12:05",69,null,null,null,null],
["CDISCPILOT01","FT","CDISC003",303,"AVL0214","AVL02-List A Word 14","AVLT-REY","FORM 1","NOT RECALLED","NOT RECALLED",null,null,2,9,"WEEK 12","TREATMENT","2013-11-05T12:05",69,null,null,null,null],
["CDISCPILOT01","FT","CDISC003",304,"AVL0215","AVL02-List A Word 15","AVLT-REY","FORM 1","NOT RECALLED","NOT RECALLED",null,null,2,9,"WEEK 12","TREATMENT","2013-11-05T12:05",69,null,null,null,null],
["CDISCPILOT01","FT","CDISC003",305,"AVL0216","AVL02-List A Total","AVLT-REY","FORM 1","8","8",8,null,2,9,"WEEK 12","TREATMENT","2013-11-05T12:05",69,null,null,null,null],
["CDISCPILOT01","FT","CDISC003",306,"AVL0217","AVL02-List A Intrusions","AVLT-REY","FORM 1","1","1",1,null,2,9,"WEEK 12","TREATMENT","2013-11-05T12:05",69,null,null,null,null],
["CDISCPILOT01","FT","CDISC003",307,"AVL0201","AVL02-List A Word 1","AVLT-REY","FORM 1","RECALLED","RECALLED",null,null,3,9,"WEEK 12","TREATMENT","2013-11-05T12:10",69,null,null,null,null],
["CDISCPILOT01","FT","CDISC003",308,"AVL0202","AVL02-List A Word 2","AVLT-REY","FORM 1","RECALLED","RECALLED",null,null,3,9,"WEEK 12","TREATMENT","2013-11-05T12:10",69,null,null,null,null],
["CDISCPILOT01","FT","CDISC003",309,"AVL0203","AVL02-List A Word 3","AVLT-REY","FORM 1","RECALLED","RECALLED",null,null,3,9,"WEEK 12","TREATMENT","2013-11-05T12:10",69,null,null,null,null],
["CDISCPILOT01","FT","CDISC003",310,"AVL0204","AVL02-List A Word 4","AVLT-REY","FORM 1","RECALLED","RECALLED",null,null,3,9,"WEEK 12","TREATMENT","2013-11-05T12:10",69,null,null,null,null],
["CDISCPILOT01","FT","CDISC003",311,"AVL0205","AVL02-List A Word 5","AVLT-REY","FORM 1","RECALLED","RECALLED",null,null,3,9,"WEEK 12","TREATMENT","2013-11-05T12:10",69,null,null,null,null],
["CDISCPILOT01","FT","CDISC003",312,"AVL0206","AVL02-List A Word 6","AVLT-REY","FORM 1","RECALLED","RECALLED",null,null,3,9,"WEEK 12","TREATMENT","2013-11-05T12:10",69,null,null,null,null],
["CDISCPILOT01","FT","CDISC003",313,"AVL0207","AVL02-List A Word 7","AVLT-REY","FORM 1","NOT RECALLED","NOT RECALLED",null,null,3,9,"WEEK 12","TREATMENT","2013-11-05T12:10",69,null,null,null,null],
