{
  "clinicalData":{"studyOID":"cdisc.com/CDISCPILOT01","metaDataVersionOID":"MDV.MSGv2.0.SDTMIG.3.3.SDTM.1.7","itemGroupData": {"IG.IE":{"records":1,"name":"IE","label":"Inclusion/Exclusion Criteria Not Met","items":[{"OID": "IT.IE.STUDYID", "name":"STUDYID", "label":"Study Identifier", "type":"string"},{"OID": "IT.IE.DOMAIN", "name":"DOMAIN", "label":"Domain Abbreviation", "type":"string"},{"OID": "IT.IE.USUBJID", "name":"USUBJID", "label":"Unique Subject Identifier", "type":"string"},{"OID": "IT.IE.IESEQ", "name":"IESEQ", "label":"Sequence Number", "type":"integer"},{"OID": "IT.IE.IETESTCD", "name":"IETESTCD", "label":"Inclusion/Exclusion Criterion Short Name", "type":"string"},{"OID": "IT.IE.IETEST", "name":"IETEST", "label":"Inclusion/Exclusion Criterion", "type":"string"},{"OID": "IT.IE.IECAT", "name":"IECAT", "label":"Inclusion/Exclusion Category", "type":"string"},{"OID": "IT.IE.IEORRES", "name":"IEORRES", "label":"I/E Criterion Original Result", "type":"string"},{"OID": "IT.IE.IESTRESC", "name":"IESTRESC", "label":"I/E Criterion Result in Std Format", "type":"string"},{"OID": "IT.IE.EPOCH", "name":"EPOCH", "label":"Epoch", "type":"string"},{"OID": "IT.IE.IEDTC", "name":"IEDTC", "label":"Date/Time of Collection", "type":"string"},{"OID": "IT.IE.IEDY", "name":"IEDY", "label":"Study Day of Collection", "type":"integer"}],"itemData": [
["CDISCPILOT01","IE","CDISC015",1,"INCL03","MMSE score of 10 to 23.","INCLUSION","N","N","SCREENING","2014-03-17",null]
]}}}
}
