{
  "clinicalData":{"studyOID":"cdisc.com/CDISCPILOT01","metaDataVersionOID":"MDV.MSGv2.0.SDTMIG.3.3.SDTM.1.7","itemGroupData": {"IG.OE":{"records":285,"name":"OE","label":"Ophthalmic Examinations","items":[{"OID": "IT.OE.STUDYID", "name":"STUDYID", "label":"Study Identifier", "type":"string", "length":12},{"OID": "IT.OE.DOMAIN", "name":"DOMAIN", "label":"Domain Abbreviation", "type":"string", "length":2},{"OID": "IT.OE.USUBJID", "name":"USUBJID", "label":"Unique Subject Identifier", "type":"string", "length":8},{"OID": "IT.OE.FOCID", "name":"FOCID", "label":"Focus of Study-Specific Interest", "type":"string", "length":2},{"OID": "IT.OE.OESEQ", "name":"OESEQ", "label":"Sequence Number", "type":"integer"},{"OID": "IT.OE.OETESTCD", "name":"OETESTCD", "label":"Short Name of Ophthalmic Test or Exam", "type":"string", "length":8},{"OID": "IT.OE.OETEST", "name":"OETEST", "label":"Name of Ophthalmic Test or Exam", "type":"string", "length":18},{"OID": "IT.OE.OEORRES", "name":"OEORRES", "label":"Result or Finding in Original Units", "type":"string", "length":200},{"OID": "IT.OE.OESTRESC", "name":"OESTRESC", "label":"Character Result/Finding in Std Format", "type":"string", "length":200},{"OID": "IT.OE.OELOC", "name":"OELOC", "label":"Location Used for the Measurement", "type":"string", "length":21},{"OID": "IT.OE.OELAT", "name":"OELAT", "label":"Laterality", "type":"string", "length":5},{"OID": "IT.OE.OEMETHOD", "name":"OEMETHOD", "label":"Method of Test or Examination", "type":"string", "length":9},{"OID": "IT.OE.OELOBXFL", "name":"OELOBXFL", "label":"Last Observation Before Exposure Flag", "type":"string", "length":1},{"OID": "IT.OE.VISITNUM", "name":"VISITNUM", "label":"Visit Number", "type":"float", "length":8, "fractionDigits":2},{"OID": "IT.OE.VISIT", "name":"VISIT", "label":"Visit Name", "type":"string", "length":200},{"OID": "IT.OE.EPOCH", "name":"EPOCH", "label":"Epoch", "type":"string", "length":9},{"OID": "IT.OE.OEDTC", "name":"OEDTC", "label":"Date/Time of Collection", "type":"string", "length":200},{"OID": "IT.OE.OEDY", "name":"OEDY", "label":"Study Day of Visit/Collection/Exam", "type":"integer"}],"itemData": [
["CDISCPILOT01","OE","CDISC001","OD",1,"INTP","Interpretation","NORMAL","NORMAL","EYE","RIGHT","SLIT LAMP","",1,"SCREENING 1","SCREENING","2012-11-23",-7],
["CDISCPILOT01","OE","CDISC001","OS",2,"INTP","Interpretation","ABNORMAL","ABNORMAL","EYE","LEFT","SLIT LAMP","",1,"SCREENING 1","SCREENING","2012-11-23",-7],
["CDISCPILOT01","OE","CDISC001","OS",3,"ABDETAIL","Abnormality Detail","SUPERFICIAL PUNCTATE KERATOPATHY","SUPERFICIAL PUNCTATE KERATOPATHY","CORNEA","LEFT","SLIT LAMP","",1,"SCREENING 1","SCREENING","2012-11-23",-7],
["CDISCPILOT01","OE","CDISC001","OD",4,"INTP","Interpretation","NORMAL","NORMAL","EYE","RIGHT","SLIT LAMP","",2,"SCREENING 2","SCREENING","2012-11-28",-2],
["CDISCPILOT01","OE","CDISC001","OS",5,"INTP","Interpretation","ABNORMAL","ABNORMAL","EYE","LEFT","SLIT LAMP","",2,"SCREENING 2","SCREENING","2012-11-28",-2],
["CDISCPILOT01","OE","CDISC001","OS",6,"ABDETAIL","Abnormality Detail","SUPERFICIAL PUNCTATE KERATOPATHY","SUPERFICIAL PUNCTATE KERATOPATHY","CORNEA","LEFT","SLIT LAMP","",2,"SCREENING 2","SCREENING","2012-11-28",-2],
["CDISCPILOT01","OE","CDISC001","OD",7,"INTP","Interpretation","NORMAL","NORMAL","EYE","RIGHT","SLIT LAMP","Y",3,"BASELINE","SCREENING","2012-11-30",1],
["CDISCPILOT01","OE","CDISC001","OS",8,"INTP","Interpretation","ABNORMAL","ABNORMAL","EYE","LEFT","SLIT LAMP","Y",3,"BASELINE","SCREENING","2012-11-30",1],
["CDISCPILOT01","OE","CDISC001","OS",9,"ABDETAIL","Abnormality Detail","SUPERFICIAL PUNCTATE KERATOPATHY","SUPERFICIAL PUNCTATE KERATOPATHY","CORNEA","LEFT","SLIT LAMP","",3,"BASELINE","SCREENING","2012-11-30",1],
["CDISCPILOT01","OE","CDISC001","OD",10,"INTP","Interpretation","NORMAL","NORMAL","EYE","RIGHT","SLIT LAMP","",4,"WEEK 2","TREATMENT","2012-12-13",14],
["CDISCPILOT01","OE","CDISC001","OS",11,"INTP","Interpretation","ABNORMAL","ABNORMAL","EYE","LEFT","SLIT LAMP","",4,"WEEK 2","TREATMENT","2012-12-13",14],
["CDISCPILOT01","OE","CDISC001","OS",12,"ABDETAIL","Abnormality Detail","SUPERFICIAL PUNCTATE KERATOPATHY","SUPERFICIAL PUNCTATE KERATOPATHY","CORNEA","LEFT","SLIT LAMP","",4,"WEEK 2","TREATMENT","2012-12-13",14],
["CDISCPILOT01","OE","CDISC001","OD",13,"INTP","Interpretation","NORMAL","NORMAL","EYE","RIGHT","SLIT LAMP","",5,"WEEK 4","TREATMENT","2012-12-26",27],
["CDISCPILOT01","OE","CDISC001","OS",14,"INTP","Interpretation","ABNORMAL","ABNORMAL","EYE","LEFT","SLIT LAMP","",5,"WEEK 4","TREATMENT","2012-12-26",27],
["CDISCPILOT01","OE","CDISC001","OS",15,"ABDETAIL","Abnormality Detail","SUPERFICIAL PUNCTATE KERATOPATHY","SUPERFICIAL PUNCTATE KERATOPATHY","CORNEA","LEFT","SLIT LAMP","",5,"WEEK 4","TREATMENT","2012-12-26",27],
["CDISCPILOT01","OE","CDISC001","OD",16,"INTP","Interpretation","NORMAL","NORMAL","EYE","RIGHT","SLIT LAMP","",8,"WEEK 8","TREATMENT","2013-01-23",55],
["CDISCPILOT01","OE","CDISC001","OS",17,"INTP","Interpretation","ABNORMAL","ABNORMAL","EYE","LEFT","SLIT LAMP","",8,"WEEK 8","TREATMENT","2013-01-23",55],
["CDISCPILOT01","OE","CDISC001","OS",18,"ABDETAIL","Abnormality Detail","SUPERFICIAL PUNCTATE KERATOPATHY","SUPERFICIAL PUNCTATE KERATOPATHY","CORNEA","LEFT","SLIT LAMP","",8,"WEEK 8","TREATMENT","2013-01-23",55],
["CDISCPILOT01","OE","CDISC001","OD",19,"INTP","Interpretation","NORMAL","NORMAL","EYE","RIGHT","SLIT LAMP","",201,"EARLY DISCONTINUATION RETRIEVAL","TREATMENT","2013-05-20",172],
["CDISCPILOT01","OE","CDISC001","OS",20,"INTP","Interpretation","ABNORMAL","ABNORMAL","EYE","LEFT","SLIT LAMP","",201,"EARLY DISCONTINUATION RETRIEVAL","TREATMENT","2013-05-20",172],
["CDISCPILOT01","OE","CDISC001","OS",21,"ABDETAIL","Abnormality Detail","SUPERFICIAL PUNCTATE KERATOPATHY","SUPERFICIAL PUNCTATE KERATOPATHY","CORNEA","LEFT","SLIT LAMP","",201,"EARLY DISCONTINUATION RETRIEVAL","TREATMENT","2013-05-20",172],
["CDISCPILOT01","OE","CDISC002","OD",1,"INTP","Interpretation","NORMAL","NORMAL","EYE","RIGHT","SLIT LAMP","",1,"SCREENING 1","SCREENING","2012-10-30",-16],
["CDISCPILOT01","OE","CDISC002","OS",2,"INTP","Interpretation","NORMAL","NORMAL","EYE","LEFT","SLIT LAMP","",1,"SCREENING 1","SCREENING","2012-10-30",-16],
["CDISCPILOT01","OE","CDISC002","OD",3,"INTP","Interpretation","NORMAL","NORMAL","EYE","RIGHT","SLIT LAMP","",2,"SCREENING 2","SCREENING","2012-11-14",-1],
["CDISCPILOT01","OE","CDISC002","OS",4,"INTP","Interpretation","NORMAL","NORMAL","EYE","LEFT","SLIT LAMP","",2,"SCREENING 2","SCREENING","2012-11-14",-1],
["CDISCPILOT01","OE","CDISC002","OD",5,"INTP","Interpretation","NORMAL","NORMAL","EYE","RIGHT","SLIT LAMP","Y",3,"BASELINE","SCREENING","2012-11-15",1],
["CDISCPILOT01","OE","CDISC002","OS",6,"INTP","Interpretation","NORMAL","NORMAL","EYE","LEFT","SLIT LAMP","Y",3,"BASELINE","SCREENING","2012-11-15",1],
["CDISCPILOT01","OE","CDISC002","OD",7,"INTP","Interpretation","NORMAL","NORMAL","EYE","RIGHT","SLIT LAMP","",4,"WEEK 2","TREATMENT","2012-11-28",14],
["CDISCPILOT01","OE","CDISC002","OS",8,"INTP","Interpretation","NORMAL","NORMAL","EYE","LEFT","SLIT LAMP","",4,"WEEK 2","TREATMENT","2012-11-28",14],
["CDISCPILOT01","OE","CDISC002","OD",9,"INTP","Interpretation","NORMAL","NORMAL","EYE","RIGHT","SLIT LAMP","",5,"WEEK 4","TREATMENT","2012-12-11",27],
["CDISCPILOT01","OE","CDISC002","OS",10,"INTP","Interpretation","NORMAL","NORMAL","EYE","LEFT","SLIT LAMP","",5,"WEEK 4","TREATMENT","2012-12-11",27],
["CDISCPILOT01","OE","CDISC002","OD",11,"INTP","Interpretation","NORMAL","NORMAL","EYE","RIGHT","SLIT LAMP","",8,"WEEK 8","TREATMENT","2013-01-08",55],
["CDISCPILOT01","OE","CDISC002","OS",12,"INTP","Interpretation","NORMAL","NORMAL","EYE","LEFT","SLIT LAMP","",8,"WEEK 8","TREATMENT","2013-01-08",55],
["CDISCPILOT01","OE","CDISC003","OD",1,"INTP","Interpretation","NORMAL","NORMAL","EYE","RIGHT","SLIT LAMP","",1,"SCREENING 1","SCREENING","2013-08-20",-9],
["CDISCPILOT01","OE","CDISC003","OS",2,"INTP","Interpretation","NORMAL","NORMAL","EYE","LEFT","SLIT LAMP","",1,"SCREENING 1","SCREENING","2013-08-20",-9],
["CDISCPILOT01","OE","CDISC003","OD",3,"INTP","Interpretation","NORMAL","NORMAL","EYE","RIGHT","SLIT LAMP","",2,"SCREENING 2","SCREENING","2013-08-27",-2],
["CDISCPILOT01","OE","CDISC003","OS",4,"INTP","Interpretation","NORMAL","NORMAL","EYE","LEFT","SLIT LAMP","",2,"SCREENING 2","SCREENING","2013-08-27",-2],
["CDISCPILOT01","OE","CDISC003","OD",5,"INTP","Interpretation","NORMAL","NORMAL","EYE","RIGHT","SLIT LAMP","Y",3,"BASELINE","SCREENING","2013-08-29",1],
["CDISCPILOT01","OE","CDISC003","OS",6,"INTP","Interpretation","NORMAL","NORMAL","EYE","LEFT","SLIT LAMP","Y",3,"BASELINE","SCREENING","2013-08-29",1],
["CDISCPILOT01","OE","CDISC003","OD",7,"INTP","Interpretation","NORMAL","NORMAL","EYE","RIGHT","SLIT LAMP","",4,"WEEK 2","TREATMENT","2013-09-15",18],
["CDISCPILOT01","OE","CDISC003","OS",8,"INTP","Interpretation","NORMAL","NORMAL","EYE","LEFT","SLIT LAMP","",4,"WEEK 2","TREATMENT","2013-09-15",18],
["CDISCPILOT01","OE","CDISC003","OD",9,"INTP","Interpretation","NORMAL","NORMAL","EYE","RIGHT","SLIT LAMP","",5,"WEEK 4","TREATMENT","2013-09-24",27],
["CDISCPILOT01","OE","CDISC003","OS",10,"INTP","Interpretation","NORMAL","NORMAL","EYE","LEFT","SLIT LAMP","",5,"WEEK 4","TREATMENT","2013-09-24",27],
["CDISCPILOT01","OE","CDISC003","OD",11,"INTP","Interpretation","NORMAL","NORMAL","EYE","RIGHT","SLIT LAMP","",8,"WEEK 8","TREATMENT","2013-10-22",55],
["CDISCPILOT01","OE","CDISC003","OS",12,"INTP","Interpretation","NORMAL","NORMAL","EYE","LEFT","SLIT LAMP","",8,"WEEK 8","TREATMENT","2013-10-22",55],
["CDISCPILOT01","OE","CDISC003","OD",13,"INTP","Interpretation","NORMAL","NORMAL","EYE","RIGHT","SLIT LAMP","",9,"WEEK 12","TREATMENT","2013-11-05",69],
["CDISCPILOT01","OE","CDISC003","OS",14,"INTP","Interpretation","NORMAL","NORMAL","EYE","LEFT","SLIT LAMP","",9,"WEEK 12","TREATMENT","2013-11-05",69],
["CDISCPILOT01","OE","CDISC003","OD",15,"INTP","Interpretation","NORMAL","NORMAL","EYE","RIGHT","SLIT LAMP","",201,"EARLY DISCONTINUATION RETRIEVAL","TREATMENT","2014-02-13",169],
["CDISCPILOT01","OE","CDISC003","OS",16,"INTP","Interpretation","NORMAL","NORMAL","EYE","LEFT","SLIT LAMP","",201,"EARLY DISCONTINUATION RETRIEVAL","TREATMENT","2014-02-13",169],
["CDISCPILOT01","OE","CDISC004","OD",1,"INTP","Interpretation","NORMAL","NORMAL","EYE","RIGHT","SLIT LAMP","",1,"SCREENING 1","SCREENING","2013-10-01",-7],
["CDISCPILOT01","OE","CDISC004","OS",2,"INTP","Interpretation","ABNORMAL","ABNORMAL","EYE","LEFT","SLIT LAMP","",1,"SCREENING 1","SCREENING","2013-10-01",-7],
["CDISCPILOT01","OE","CDISC004","OS",3,"ABDETAIL","Abnormality Detail","PTOSIS","PTOSIS","IRIS","LEFT","SLIT LAMP","",1,"SCREENING 1","SCREENING","2013-10-01",-7],
["CDISCPILOT01","OE","CDISC004","OD",4,"INTP","Interpretation","NORMAL","NORMAL","EYE","RIGHT","SLIT LAMP","",2,"SCREENING 2","SCREENING","2013-10-06",-2],
["CDISCPILOT01","OE","CDISC004","OS",5,"INTP","Interpretation","ABNORMAL","ABNORMAL","EYE","LEFT","SLIT LAMP","",2,"SCREENING 2","SCREENING","2013-10-06",-2],
["CDISCPILOT01","OE","CDISC004","OS",6,"ABDETAIL","Abnormality Detail","PTOSIS","PTOSIS","IRIS","LEFT","SLIT LAMP","",2,"SCREENING 2","SCREENING","2013-10-06",-2],
["CDISCPILOT01","OE","CDISC004","OD",7,"INTP","Interpretation","NORMAL","NORMAL","EYE","RIGHT","SLIT LAMP","Y",3,"BASELINE","SCREENING","2013-10-08",1],
["CDISCPILOT01","OE","CDISC004","OS",8,"INTP","Interpretation","ABNORMAL","ABNORMAL","EYE","LEFT","SLIT LAMP","Y",3,"BASELINE","SCREENING","2013-10-08",1],
["CDISCPILOT01","OE","CDISC004","OS",9,"ABDETAIL","Abnormality Detail","PTOSIS","PTOSIS","IRIS","LEFT","SLIT LAMP","",3,"BASELINE","SCREENING","2013-10-08",1],
["CDISCPILOT01","OE","CDISC004","OD",10,"INTP","Interpretation","NORMAL","NORMAL","EYE","RIGHT","SLIT LAMP","",4,"WEEK 2","TREATMENT","2013-10-24",17],
["CDISCPILOT01","OE","CDISC004","OS",11,"INTP","Interpretation","ABNORMAL","ABNORMAL","EYE","LEFT","SLIT LAMP","",4,"WEEK 2","TREATMENT","2013-10-24",17],
["CDISCPILOT01","OE","CDISC004","OS",12,"ABDETAIL","Abnormality Detail","PTOSIS","PTOSIS","IRIS","LEFT","SLIT LAMP","",4,"WEEK 2","TREATMENT","2013-10-24",17],
["CDISCPILOT01","OE","CDISC004","OD",13,"INTP","Interpretation","NORMAL","NORMAL","EYE","RIGHT","SLIT LAMP","",5,"WEEK 4","TREATMENT","2013-11-08",32],
["CDISCPILOT01","OE","CDISC004","OS",14,"INTP","Interpretation","ABNORMAL","ABNORMAL","EYE","LEFT","SLIT LAMP","",5,"WEEK 4","TREATMENT","2013-11-08",32],
["CDISCPILOT01","OE","CDISC004","OS",15,"ABDETAIL","Abnormality Detail","PTOSIS","PTOSIS","IRIS","LEFT","SLIT LAMP","",5,"WEEK 4","TREATMENT","2013-11-08",32],
["CDISCPILOT01","OE","CDISC004","OD",16,"INTP","Interpretation","NORMAL","NORMAL","EYE","RIGHT","SLIT LAMP","",8,"WEEK 8","TREATMENT","2013-12-03",57],
["CDISCPILOT01","OE","CDISC004","OS",17,"INTP","Interpretation","ABNORMAL","ABNORMAL","EYE","LEFT","SLIT LAMP","",8,"WEEK 8","TREATMENT","2013-12-03",57],
["CDISCPILOT01","OE","CDISC004","OS",18,"ABDETAIL","Abnormality Detail","PTOSIS","PTOSIS","IRIS","LEFT","SLIT LAMP","",8,"WEEK 8","TREATMENT","2013-12-03",57],
["CDISCPILOT01","OE","CDISC004","OD",19,"INTP","Interpretation","NORMAL","NORMAL","EYE","RIGHT","SLIT LAMP","",9,"WEEK 12","TREATMENT","2013-12-31",85],
["CDISCPILOT01","OE","CDISC004","OS",20,"INTP","Interpretation","ABNORMAL","ABNORMAL","EYE","LEFT","SLIT LAMP","",9,"WEEK 12","TREATMENT","2013-12-31",85],
["CDISCPILOT01","OE","CDISC004","OS",21,"ABDETAIL","Abnormality Detail","PTOSIS","PTOSIS","IRIS","LEFT","SLIT LAMP","",9,"WEEK 12","TREATMENT","2013-12-31",85],
["CDISCPILOT01","OE","CDISC004","OD",22,"INTP","Interpretation","NORMAL","NORMAL","EYE","RIGHT","SLIT LAMP","",10,"WEEK 16","TREATMENT","2014-01-27",112],
["CDISCPILOT01","OE","CDISC004","OS",23,"INTP","Interpretation","ABNORMAL","ABNORMAL","EYE","LEFT","SLIT LAMP","",10,"WEEK 16","TREATMENT","2014-01-27",112],
["CDISCPILOT01","OE","CDISC004","OS",24,"ABDETAIL","Abnormality Detail","PTOSIS","PTOSIS","IRIS","LEFT","SLIT LAMP","",10,"WEEK 16","TREATMENT","2014-01-27",112],
["CDISCPILOT01","OE","CDISC004","OD",25,"INTP","Interpretation","NORMAL","NORMAL","EYE","RIGHT","SLIT LAMP","",11,"WEEK 20","TREATMENT","2014-02-25",141],
["CDISCPILOT01","OE","CDISC004","OS",26,"INTP","Interpretation","ABNORMAL","ABNORMAL","EYE","LEFT","SLIT LAMP","",11,"WEEK 20","TREATMENT","2014-02-25",141],
["CDISCPILOT01","OE","CDISC004","OS",27,"ABDETAIL","Abnormality Detail","PTOSIS","PTOSIS","IRIS","LEFT","SLIT LAMP","",11,"WEEK 20","TREATMENT","2014-02-25",141],
["CDISCPILOT01","OE","CDISC004","OD",28,"INTP","Interpretation","NORMAL","NORMAL","EYE","RIGHT","SLIT LAMP","",12,"WEEK 24","TREATMENT","2014-03-18",162],
["CDISCPILOT01","OE","CDISC004","OS",29,"INTP","Interpretation","ABNORMAL","ABNORMAL","EYE","LEFT","SLIT LAMP","",12,"WEEK 24","TREATMENT","2014-03-18",162],
["CDISCPILOT01","OE","CDISC004","OS",30,"ABDETAIL","Abnormality Detail","PTOSIS","PTOSIS","IRIS","LEFT","SLIT LAMP","",12,"WEEK 24","TREATMENT","2014-03-18",162],
["CDISCPILOT01","OE","CDISC005","OD",1,"INTP","Interpretation","NORMAL","NORMAL","EYE","RIGHT","SLIT LAMP","",1,"SCREENING 1","SCREENING","2013-01-22",-13],
["CDISCPILOT01","OE","CDISC005","OS",2,"INTP","Interpretation","NORMAL","NORMAL","EYE","LEFT","SLIT LAMP","",1,"SCREENING 1","SCREENING","2013-01-22",-13],
["CDISCPILOT01","OE","CDISC005","OD",3,"INTP","Interpretation","NORMAL","NORMAL","EYE","RIGHT","SLIT LAMP","",2,"SCREENING 2","SCREENING","2013-02-02",-2],
["CDISCPILOT01","OE","CDISC005","OS",4,"INTP","Interpretation","NORMAL","NORMAL","EYE","LEFT","SLIT LAMP","",2,"SCREENING 2","SCREENING","2013-02-02",-2],
["CDISCPILOT01","OE","CDISC005","OD",5,"INTP","Interpretation","NORMAL","NORMAL","EYE","RIGHT","SLIT LAMP","Y",3,"BASELINE","SCREENING","2013-02-04",1],
["CDISCPILOT01","OE","CDISC005","OS",6,"INTP","Interpretation","NORMAL","NORMAL","EYE","LEFT","SLIT LAMP","Y",3,"BASELINE","SCREENING","2013-02-04",1],
["CDISCPILOT01","OE","CDISC005","OD",7,"INTP","Interpretation","NORMAL","NORMAL","EYE","RIGHT","SLIT LAMP","",4,"WEEK 2","TREATMENT","2013-02-19",16],
["CDISCPILOT01","OE","CDISC005","OS",8,"INTP","Interpretation","NORMAL","NORMAL","EYE","LEFT","SLIT LAMP","",4,"WEEK 2","TREATMENT","2013-02-19",16],
["CDISCPILOT01","OE","CDISC005","OD",9,"INTP","Interpretation","NORMAL","NORMAL","EYE","RIGHT","SLIT LAMP","",5,"WEEK 4","TREATMENT","2013-03-12",37],
["CDISCPILOT01","OE","CDISC005","OS",10,"INTP","Interpretation","NORMAL","NORMAL","EYE","LEFT","SLIT LAMP","",5,"WEEK 4","TREATMENT","2013-03-12",37],
["CDISCPILOT01","OE","CDISC005","OD",11,"INTP","Interpretation","NORMAL","NORMAL","EYE","RIGHT","SLIT LAMP","",8,"WEEK 8","TREATMENT","2013-04-02",58],
["CDISCPILOT01","OE","CDISC005","OS",12,"INTP","Interpretation","NORMAL","NORMAL","EYE","LEFT","SLIT LAMP","",8,"WEEK 8","TREATMENT","2013-04-02",58],
["CDISCPILOT01","OE","CDISC005","OD",13,"INTP","Interpretation","NORMAL","NORMAL","EYE","RIGHT","SLIT LAMP","",9,"WEEK 12","TREATMENT","2013-04-30",86],
["CDISCPILOT01","OE","CDISC005","OS",14,"INTP","Interpretation","NORMAL","NORMAL","EYE","LEFT","SLIT LAMP","",9,"WEEK 12","TREATMENT","2013-04-30",86],
["CDISCPILOT01","OE","CDISC005","OD",15,"INTP","Interpretation","NORMAL","NORMAL","EYE","RIGHT","SLIT LAMP","",10,"WEEK 16","TREATMENT","2013-05-30",116],
["CDISCPILOT01","OE","CDISC005","OS",16,"INTP","Interpretation","NORMAL","NORMAL","EYE","LEFT","SLIT LAMP","",10,"WEEK 16","TREATMENT","2013-05-30",116],
["CDISCPILOT01","OE","CDISC005","OD",17,"INTP","Interpretation","NORMAL","NORMAL","EYE","RIGHT","SLIT LAMP","",11,"WEEK 20","TREATMENT","2013-06-25",142],
["CDISCPILOT01","OE","CDISC005","OS",18,"INTP","Interpretation","NORMAL","NORMAL","EYE","LEFT","SLIT LAMP","",11,"WEEK 20","TREATMENT","2013-06-25",142],
["CDISCPILOT01","OE","CDISC005","OD",19,"INTP","Interpretation","NORMAL","NORMAL","EYE","RIGHT","SLIT LAMP","",12,"WEEK 24","TREATMENT","2013-07-30",177],
["CDISCPILOT01","OE","CDISC005","OS",20,"INTP","Interpretation","NORMAL","NORMAL","EYE","LEFT","SLIT LAMP","",12,"WEEK 24","TREATMENT","2013-07-30",177],
["CDISCPILOT01","OE","CDISC005","OD",21,"INTP","Interpretation","NORMAL","NORMAL","EYE","RIGHT","SLIT LAMP","",13,"WEEK 26","TREATMENT","2013-08-06",184],
["CDISCPILOT01","OE","CDISC005","OS",22,"INTP","Interpretation","NORMAL","NORMAL","EYE","LEFT","SLIT LAMP","",13,"WEEK 26","TREATMENT","2013-08-06",184],
["CDISCPILOT01","OE","CDISC006","OD",1,"INTP","Interpretation","NORMAL","NORMAL","EYE","RIGHT","SLIT LAMP","",1,"SCREENING 1","SCREENING","2013-02-25",-22],
["CDISCPILOT01","OE","CDISC006","OS",2,"INTP","Interpretation","NORMAL","NORMAL","EYE","LEFT","SLIT LAMP","",1,"SCREENING 1","SCREENING","2013-02-25",-22],
["CDISCPILOT01","OE","CDISC006","OD",3,"INTP","Interpretation","NORMAL","NORMAL","EYE","RIGHT","SLIT LAMP","",2,"SCREENING 2","SCREENING","2013-03-17",-2],
["CDISCPILOT01","OE","CDISC006","OS",4,"INTP","Interpretation","NORMAL","NORMAL","EYE","LEFT","SLIT LAMP","",2,"SCREENING 2","SCREENING","2013-03-17",-2],
["CDISCPILOT01","OE","CDISC006","OD",5,"INTP","Interpretation","NORMAL","NORMAL","EYE","RIGHT","SLIT LAMP","Y",3,"BASELINE","SCREENING","2013-03-19",1],
["CDISCPILOT01","OE","CDISC006","OS",6,"INTP","Interpretation","NORMAL","NORMAL","EYE","LEFT","SLIT LAMP","Y",3,"BASELINE","SCREENING","2013-03-19",1],
["CDISCPILOT01","OE","CDISC006","OD",7,"INTP","Interpretation","NORMAL","NORMAL","EYE","RIGHT","SLIT LAMP","",4,"WEEK 2","TREATMENT","2013-04-02",15],
["CDISCPILOT01","OE","CDISC006","OS",8,"INTP","Interpretation","NORMAL","NORMAL","EYE","LEFT","SLIT LAMP","",4,"WEEK 2","TREATMENT","2013-04-02",15],
["CDISCPILOT01","OE","CDISC006","OD",9,"INTP","Interpretation","NORMAL","NORMAL","EYE","RIGHT","SLIT LAMP","",5,"WEEK 4","TREATMENT","2013-04-16",29],
["CDISCPILOT01","OE","CDISC006","OS",10,"INTP","Interpretation","NORMAL","NORMAL","EYE","LEFT","SLIT LAMP","",5,"WEEK 4","TREATMENT","2013-04-16",29],
["CDISCPILOT01","OE","CDISC007","OD",1,"INTP","Interpretation","NORMAL","NORMAL","EYE","RIGHT","SLIT LAMP","",1,"SCREENING 1","SCREENING","2012-12-31",-5],
["CDISCPILOT01","OE","CDISC007","OS",2,"INTP","Interpretation","NORMAL","NORMAL","EYE","LEFT","SLIT LAMP","",1,"SCREENING 1","SCREENING","2012-12-31",-5],
["CDISCPILOT01","OE","CDISC007","OD",3,"INTP","Interpretation","NORMAL","NORMAL","EYE","RIGHT","SLIT LAMP","",2,"SCREENING 2","SCREENING","2013-01-03",-2],
["CDISCPILOT01","OE","CDISC007","OS",4,"INTP","Interpretation","NORMAL","NORMAL","EYE","LEFT","SLIT LAMP","",2,"SCREENING 2","SCREENING","2013-01-03",-2],
["CDISCPILOT01","OE","CDISC007","OD",5,"INTP","Interpretation","NORMAL","NORMAL","EYE","RIGHT","SLIT LAMP","Y",3,"BASELINE","SCREENING","2013-01-05",1],
["CDISCPILOT01","OE","CDISC007","OS",6,"INTP","Interpretation","NORMAL","NORMAL","EYE","LEFT","SLIT LAMP","Y",3,"BASELINE","SCREENING","2013-01-05",1],
["CDISCPILOT01","OE","CDISC007","OD",7,"INTP","Interpretation","NORMAL","NORMAL","EYE","RIGHT","SLIT LAMP","",4,"WEEK 2","TREATMENT","2013-01-18",14],
["CDISCPILOT01","OE","CDISC007","OS",8,"INTP","Interpretation","NORMAL","NORMAL","EYE","LEFT","SLIT LAMP","",4,"WEEK 2","TREATMENT","2013-01-18",14],
["CDISCPILOT01","OE","CDISC007","OD",9,"INTP","Interpretation","NORMAL","NORMAL","EYE","RIGHT","SLIT LAMP","",5,"WEEK 4","TREATMENT","2013-01-31",27],
["CDISCPILOT01","OE","CDISC007","OS",10,"INTP","Interpretation","NORMAL","NORMAL","EYE","LEFT","SLIT LAMP","",5,"WEEK 4","TREATMENT","2013-01-31",27],
["CDISCPILOT01","OE","CDISC007","OD",11,"INTP","Interpretation","NORMAL","NORMAL","EYE","RIGHT","SLIT LAMP","",201,"EARLY DISCONTINUATION RETRIEVAL","TREATMENT","2013-06-20",167],
["CDISCPILOT01","OE","CDISC007","OS",12,"INTP","Interpretation","NORMAL","NORMAL","EYE","LEFT","SLIT LAMP","",201,"EARLY DISCONTINUATION RETRIEVAL","TREATMENT","2013-06-20",167],
["CDISCPILOT01","OE","CDISC008","OD",1,"INTP","Interpretation","NORMAL","NORMAL","EYE","RIGHT","SLIT LAMP","",1,"SCREENING 1","SCREENING","2014-05-01",-10],
["CDISCPILOT01","OE","CDISC008","OS",2,"INTP","Interpretation","NORMAL","NORMAL","EYE","LEFT","SLIT LAMP","",1,"SCREENING 1","SCREENING","2014-05-01",-10],
["CDISCPILOT01","OE","CDISC008","OD",3,"INTP","Interpretation","NORMAL","NORMAL","EYE","RIGHT","SLIT LAMP","",2,"SCREENING 2","SCREENING","2014-05-09",-2],
["CDISCPILOT01","OE","CDISC008","OS",4,"INTP","Interpretation","NORMAL","NORMAL","EYE","LEFT","SLIT LAMP","",2,"SCREENING 2","SCREENING","2014-05-09",-2],
["CDISCPILOT01","OE","CDISC008","OD",5,"INTP","Interpretation","NORMAL","NORMAL","EYE","RIGHT","SLIT LAMP","Y",3,"BASELINE","SCREENING","2014-05-11",1],
["CDISCPILOT01","OE","CDISC008","OS",6,"INTP","Interpretation","NORMAL","NORMAL","EYE","LEFT","SLIT LAMP","Y",3,"BASELINE","SCREENING","2014-05-11",1],
["CDISCPILOT01","OE","CDISC008","OD",7,"INTP","Interpretation","NORMAL","NORMAL","EYE","RIGHT","SLIT LAMP","",4,"WEEK 2","TREATMENT","2014-05-25",15],
["CDISCPILOT01","OE","CDISC008","OS",8,"INTP","Interpretation","NORMAL","NORMAL","EYE","LEFT","SLIT LAMP","",4,"WEEK 2","TREATMENT","2014-05-25",15],
["CDISCPILOT01","OE","CDISC008","OD",9,"INTP","Interpretation","NORMAL","NORMAL","EYE","RIGHT","SLIT LAMP","",5,"WEEK 4","TREATMENT","2014-06-11",32],
["CDISCPILOT01","OE","CDISC008","OS",10,"INTP","Interpretation","NORMAL","NORMAL","EYE","LEFT","SLIT LAMP","",5,"WEEK 4","TREATMENT","2014-06-11",32],
["CDISCPILOT01","OE","CDISC008","OD",11,"INTP","Interpretation","NORMAL","NORMAL","EYE","RIGHT","SLIT LAMP","",8,"WEEK 8","TREATMENT","2014-07-09",60],
["CDISCPILOT01","OE","CDISC008","OS",12,"INTP","Interpretation","NORMAL","NORMAL","EYE","LEFT","SLIT LAMP","",8,"WEEK 8","TREATMENT","2014-07-09",60],
["CDISCPILOT01","OE","CDISC008","OD",13,"INTP","Interpretation","NORMAL","NORMAL","EYE","RIGHT","SLIT LAMP","",9,"WEEK 12","TREATMENT","2014-08-06",88],
["CDISCPILOT01","OE","CDISC008","OS",14,"INTP","Interpretation","NORMAL","NORMAL","EYE","LEFT","SLIT LAMP","",9,"WEEK 12","TREATMENT","2014-08-06",88],
["CDISCPILOT01","OE","CDISC008","OD",15,"INTP","Interpretation","NORMAL","NORMAL","EYE","RIGHT","SLIT LAMP","",10,"WEEK 16","TREATMENT","2014-09-03",116],
["CDISCPILOT01","OE","CDISC008","OS",16,"INTP","Interpretation","NORMAL","NORMAL","EYE","LEFT","SLIT LAMP","",10,"WEEK 16","TREATMENT","2014-09-03",116],
["CDISCPILOT01","OE","CDISC008","OD",17,"INTP","Interpretation","NORMAL","NORMAL","EYE","RIGHT","SLIT LAMP","",11,"WEEK 20","TREATMENT","2014-10-01",144],
["CDISCPILOT01","OE","CDISC008","OS",18,"INTP","Interpretation","NORMAL","NORMAL","EYE","LEFT","SLIT LAMP","",11,"WEEK 20","TREATMENT","2014-10-01",144],
["CDISCPILOT01","OE","CDISC009","OD",1,"INTP","Interpretation","NORMAL","NORMAL","EYE","RIGHT","SLIT LAMP","",1,"SCREENING 1","SCREENING","2012-10-06",-16],
["CDISCPILOT01","OE","CDISC009","OS",2,"INTP","Interpretation","NORMAL","NORMAL","EYE","LEFT","SLIT LAMP","",1,"SCREENING 1","SCREENING","2012-10-06",-16],
["CDISCPILOT01","OE","CDISC009","OD",3,"INTP","Interpretation","NORMAL","NORMAL","EYE","RIGHT","SLIT LAMP","",2,"SCREENING 2","SCREENING","2012-10-20",-2],
["CDISCPILOT01","OE","CDISC009","OS",4,"INTP","Interpretation","NORMAL","NORMAL","EYE","LEFT","SLIT LAMP","",2,"SCREENING 2","SCREENING","2012-10-20",-2],
["CDISCPILOT01","OE","CDISC009","OD",5,"INTP","Interpretation","NORMAL","NORMAL","EYE","RIGHT","SLIT LAMP","Y",3,"BASELINE","SCREENING","2012-10-22",1],
["CDISCPILOT01","OE","CDISC009","OS",6,"INTP","Interpretation","NORMAL","NORMAL","EYE","LEFT","SLIT LAMP","Y",3,"BASELINE","SCREENING","2012-10-22",1],
["CDISCPILOT01","OE","CDISC009","OD",7,"INTP","Interpretation","NORMAL","NORMAL","EYE","RIGHT","SLIT LAMP","",4,"WEEK 2","TREATMENT","2012-11-05",15],
["CDISCPILOT01","OE","CDISC009","OS",8,"INTP","Interpretation","NORMAL","NORMAL","EYE","LEFT","SLIT LAMP","",4,"WEEK 2","TREATMENT","2012-11-05",15],
["CDISCPILOT01","OE","CDISC009","OD",9,"INTP","Interpretation","NORMAL","NORMAL","EYE","RIGHT","SLIT LAMP","",5,"WEEK 4","TREATMENT","2012-11-20",30],
["CDISCPILOT01","OE","CDISC009","OS",10,"INTP","Interpretation","NORMAL","NORMAL","EYE","LEFT","SLIT LAMP","",5,"WEEK 4","TREATMENT","2012-11-20",30],
["CDISCPILOT01","OE","CDISC009","OD",11,"INTP","Interpretation","NORMAL","NORMAL","EYE","RIGHT","SLIT LAMP","",8,"WEEK 8","TREATMENT","2012-12-22",62],
["CDISCPILOT01","OE","CDISC009","OS",12,"INTP","Interpretation","NORMAL","NORMAL","EYE","LEFT","SLIT LAMP","",8,"WEEK 8","TREATMENT","2012-12-22",62],
["CDISCPILOT01","OE","CDISC009","OD",13,"INTP","Interpretation","NORMAL","NORMAL","EYE","RIGHT","SLIT LAMP","",9,"WEEK 12","TREATMENT","2013-01-19",90],
["CDISCPILOT01","OE","CDISC009","OS",14,"INTP","Interpretation","NORMAL","NORMAL","EYE","LEFT","SLIT LAMP","",9,"WEEK 12","TREATMENT","2013-01-19",90],
["CDISCPILOT01","OE","CDISC009","OD",15,"INTP","Interpretation","NORMAL","NORMAL","EYE","RIGHT","SLIT LAMP","",10,"WEEK 16","TREATMENT","2013-02-16",118],
["CDISCPILOT01","OE","CDISC009","OS",16,"INTP","Interpretation","NORMAL","NORMAL","EYE","LEFT","SLIT LAMP","",10,"WEEK 16","TREATMENT","2013-02-16",118],
["CDISCPILOT01","OE","CDISC009","OD",17,"INTP","Interpretation","NORMAL","NORMAL","EYE","RIGHT","SLIT LAMP","",11,"WEEK 20","TREATMENT","2013-03-16",146],
["CDISCPILOT01","OE","CDISC009","OS",18,"INTP","Interpretation","NORMAL","NORMAL","EYE","LEFT","SLIT LAMP","",11,"WEEK 20","TREATMENT","2013-03-16",146],
["CDISCPILOT01","OE","CDISC009","OD",19,"INTP","Interpretation","NORMAL","NORMAL","EYE","RIGHT","SLIT LAMP","",12,"WEEK 24","TREATMENT","2013-04-10",171],
["CDISCPILOT01","OE","CDISC009","OS",20,"INTP","Interpretation","NORMAL","NORMAL","EYE","LEFT","SLIT LAMP","",12,"WEEK 24","TREATMENT","2013-04-10",171],
["CDISCPILOT01","OE","CDISC009","OD",21,"INTP","Interpretation","NORMAL","NORMAL","EYE","RIGHT","SLIT LAMP","",13,"WEEK 26","TREATMENT","2013-04-28",189],
["CDISCPILOT01","OE","CDISC009","OS",22,"INTP","Interpretation","NORMAL","NORMAL","EYE","LEFT","SLIT LAMP","",13,"WEEK 26","TREATMENT","2013-04-28",189],
["CDISCPILOT01","OE","CDISC010","OD",1,"INTP","Interpretation","NORMAL","NORMAL","EYE","RIGHT","SLIT LAMP","",1,"SCREENING 1","SCREENING","2013-09-08",-13],
["CDISCPILOT01","OE","CDISC010","OS",2,"INTP","Interpretation","NORMAL","NORMAL","EYE","LEFT","SLIT LAMP","",1,"SCREENING 1","SCREENING","2013-09-08",-13],
["CDISCPILOT01","OE","CDISC010","OD",3,"INTP","Interpretation","NORMAL","NORMAL","EYE","RIGHT","SLIT LAMP","",2,"SCREENING 2","SCREENING","2013-09-19",-2],
["CDISCPILOT01","OE","CDISC010","OS",4,"INTP","Interpretation","NORMAL","NORMAL","EYE","LEFT","SLIT LAMP","",2,"SCREENING 2","SCREENING","2013-09-19",-2],
["CDISCPILOT01","OE","CDISC010","OD",5,"INTP","Interpretation","NORMAL","NORMAL","EYE","RIGHT","SLIT LAMP","Y",3,"BASELINE","SCREENING","2013-09-21",1],
["CDISCPILOT01","OE","CDISC010","OS",6,"INTP","Interpretation","NORMAL","NORMAL","EYE","LEFT","SLIT LAMP","Y",3,"BASELINE","SCREENING","2013-09-21",1],
["CDISCPILOT01","OE","CDISC011","OD",1,"INTP","Interpretation","ABNORMAL","ABNORMAL","EYE","RIGHT","SLIT LAMP","",1,"SCREENING 1","SCREENING","2012-11-21",-16],
["CDISCPILOT01","OE","CDISC011","OD",2,"ABDETAIL","Abnormality Detail","HYPEREMIA","HYPEREMIA","CONJUNCTIVA","RIGHT","SLIT LAMP","",1,"SCREENING 1","SCREENING","2012-11-21",-16],
["CDISCPILOT01","OE","CDISC011","OS",3,"INTP","Interpretation","NORMAL","NORMAL","EYE","LEFT","SLIT LAMP","",1,"SCREENING 1","SCREENING","2012-11-21",-16],
["CDISCPILOT01","OE","CDISC011","OD",4,"INTP","Interpretation","ABNORMAL","ABNORMAL","EYE","RIGHT","SLIT LAMP","",2,"SCREENING 2","SCREENING","2012-12-05",-2],
["CDISCPILOT01","OE","CDISC011","OD",5,"ABDETAIL","Abnormality Detail","HYPEREMIA","HYPEREMIA","CONJUNCTIVA","RIGHT","SLIT LAMP","",2,"SCREENING 2","SCREENING","2012-12-05",-2],
["CDISCPILOT01","OE","CDISC011","OS",6,"INTP","Interpretation","NORMAL","NORMAL","EYE","LEFT","SLIT LAMP","",2,"SCREENING 2","SCREENING","2012-12-05",-2],
["CDISCPILOT01","OE","CDISC011","OD",7,"INTP","Interpretation","ABNORMAL","ABNORMAL","EYE","RIGHT","SLIT LAMP","Y",3,"BASELINE","SCREENING","2012-12-07",1],
["CDISCPILOT01","OE","CDISC011","OD",8,"ABDETAIL","Abnormality Detail","HYPEREMIA","HYPEREMIA","CONJUNCTIVA","RIGHT","SLIT LAMP","",3,"BASELINE","SCREENING","2012-12-07",1],
["CDISCPILOT01","OE","CDISC011","OS",9,"INTP","Interpretation","NORMAL","NORMAL","EYE","LEFT","SLIT LAMP","Y",3,"BASELINE","SCREENING","2012-12-07",1],
["CDISCPILOT01","OE","CDISC011","OD",10,"INTP","Interpretation","NORMAL","NORMAL","EYE","RIGHT","SLIT LAMP","",4,"WEEK 2","TREATMENT","2012-12-21",15],
["CDISCPILOT01","OE","CDISC011","OS",11,"INTP","Interpretation","NORMAL","NORMAL","EYE","LEFT","SLIT LAMP","",4,"WEEK 2","TREATMENT","2012-12-21",15],
["CDISCPILOT01","OE","CDISC011","OD",12,"INTP","Interpretation","NORMAL","NORMAL","EYE","RIGHT","SLIT LAMP","",5,"WEEK 4","TREATMENT","2013-01-01",26],
["CDISCPILOT01","OE","CDISC011","OS",13,"INTP","Interpretation","NORMAL","NORMAL","EYE","LEFT","SLIT LAMP","",5,"WEEK 4","TREATMENT","2013-01-01",26],
["CDISCPILOT01","OE","CDISC011","OD",14,"INTP","Interpretation","NORMAL","NORMAL","EYE","RIGHT","SLIT LAMP","",8,"WEEK 8","TREATMENT","2013-01-29",54],
["CDISCPILOT01","OE","CDISC011","OS",15,"INTP","Interpretation","NORMAL","NORMAL","EYE","LEFT","SLIT LAMP","",8,"WEEK 8","TREATMENT","2013-01-29",54],
["CDISCPILOT01","OE","CDISC011","OD",16,"INTP","Interpretation","NORMAL","NORMAL","EYE","RIGHT","SLIT LAMP","",9,"WEEK 12","TREATMENT","2013-02-27",83],
["CDISCPILOT01","OE","CDISC011","OS",17,"INTP","Interpretation","NORMAL","NORMAL","EYE","LEFT","SLIT LAMP","",9,"WEEK 12","TREATMENT","2013-02-27",83],
["CDISCPILOT01","OE","CDISC011","OD",18,"INTP","Interpretation","NORMAL","NORMAL","EYE","RIGHT","SLIT LAMP","",10,"WEEK 16","TREATMENT","2013-03-27",111],
["CDISCPILOT01","OE","CDISC011","OS",19,"INTP","Interpretation","NORMAL","NORMAL","EYE","LEFT","SLIT LAMP","",10,"WEEK 16","TREATMENT","2013-03-27",111],
["CDISCPILOT01","OE","CDISC011","OD",20,"INTP","Interpretation","NORMAL","NORMAL","EYE","RIGHT","SLIT LAMP","",11,"WEEK 20","TREATMENT","2013-04-23",138],
["CDISCPILOT01","OE","CDISC011","OS",21,"INTP","Interpretation","NORMAL","NORMAL","EYE","LEFT","SLIT LAMP","",11,"WEEK 20","TREATMENT","2013-04-23",138],
["CDISCPILOT01","OE","CDISC011","OD",22,"INTP","Interpretation","NORMAL","NORMAL","EYE","RIGHT","SLIT LAMP","",12,"WEEK 24","TREATMENT","2013-05-22",167],
["CDISCPILOT01","OE","CDISC011","OS",23,"INTP","Interpretation","NORMAL","NORMAL","EYE","LEFT","SLIT LAMP","",12,"WEEK 24","TREATMENT","2013-05-22",167],
["CDISCPILOT01","OE","CDISC011","OD",24,"INTP","Interpretation","NORMAL","NORMAL","EYE","RIGHT","SLIT LAMP","",13,"WEEK 26","TREATMENT","2013-06-05",181],
["CDISCPILOT01","OE","CDISC011","OS",25,"INTP","Interpretation","NORMAL","NORMAL","EYE","LEFT","SLIT LAMP","",13,"WEEK 26","TREATMENT","2013-06-05",181],
["CDISCPILOT01","OE","CDISC012","OD",1,"INTP","Interpretation","ABNORMAL","ABNORMAL","EYE","RIGHT","SLIT LAMP","",1,"SCREENING 1","SCREENING","2013-08-24",-10],
["CDISCPILOT01","OE","CDISC012","OD",2,"ABDETAIL","Abnormality Detail","FLARE","FLARE","ANTERIOR CHAMBER","RIGHT","SLIT LAMP","",1,"SCREENING 1","SCREENING","2013-08-24",-10],
["CDISCPILOT01","OE","CDISC012","OS",3,"INTP","Interpretation","NORMAL","NORMAL","EYE","LEFT","SLIT LAMP","",1,"SCREENING 1","SCREENING","2013-08-24",-10],
["CDISCPILOT01","OE","CDISC012","OD",4,"INTP","Interpretation","ABNORMAL","ABNORMAL","EYE","RIGHT","SLIT LAMP","",2,"SCREENING 2","SCREENING","2013-09-01",-2],
["CDISCPILOT01","OE","CDISC012","OD",5,"ABDETAIL","Abnormality Detail","FLARE","FLARE","ANTERIOR CHAMBER","RIGHT","SLIT LAMP","",2,"SCREENING 2","SCREENING","2013-09-01",-2],
["CDISCPILOT01","OE","CDISC012","OS",6,"INTP","Interpretation","NORMAL","NORMAL","EYE","LEFT","SLIT LAMP","",2,"SCREENING 2","SCREENING","2013-09-01",-2],
["CDISCPILOT01","OE","CDISC012","OD",7,"INTP","Interpretation","ABNORMAL","ABNORMAL","EYE","RIGHT","SLIT LAMP","Y",3,"BASELINE","SCREENING","2013-09-03",1],
["CDISCPILOT01","OE","CDISC012","OD",8,"ABDETAIL","Abnormality Detail","FLARE","FLARE","ANTERIOR CHAMBER","RIGHT","SLIT LAMP","",3,"BASELINE","SCREENING","2013-09-03",1],
["CDISCPILOT01","OE","CDISC012","OS",9,"INTP","Interpretation","NORMAL","NORMAL","EYE","LEFT","SLIT LAMP","Y",3,"BASELINE","SCREENING","2013-09-03",1],
["CDISCPILOT01","OE","CDISC012","OD",10,"INTP","Interpretation","ABNORMAL","ABNORMAL","EYE","RIGHT","SLIT LAMP","",4,"WEEK 2","TREATMENT","2013-09-21",19],
["CDISCPILOT01","OE","CDISC012","OD",11,"ABDETAIL","Abnormality Detail","FLARE","FLARE","ANTERIOR CHAMBER","RIGHT","SLIT LAMP","",4,"WEEK 2","TREATMENT","2013-09-21",19],
["CDISCPILOT01","OE","CDISC012","OS",12,"INTP","Interpretation","NORMAL","NORMAL","EYE","LEFT","SLIT LAMP","",4,"WEEK 2","TREATMENT","2013-09-21",19],
["CDISCPILOT01","OE","CDISC012","OD",13,"INTP","Interpretation","NORMAL","NORMAL","EYE","RIGHT","SLIT LAMP","",5,"WEEK 4","TREATMENT","2013-10-05",33],
["CDISCPILOT01","OE","CDISC012","OS",14,"INTP","Interpretation","NORMAL","NORMAL","EYE","LEFT","SLIT LAMP","",5,"WEEK 4","TREATMENT","2013-10-05",33],
["CDISCPILOT01","OE","CDISC012","OD",15,"INTP","Interpretation","NORMAL","NORMAL","EYE","RIGHT","SLIT LAMP","",8,"WEEK 8","TREATMENT","2013-11-05",64],
["CDISCPILOT01","OE","CDISC012","OS",16,"INTP","Interpretation","NORMAL","NORMAL","EYE","LEFT","SLIT LAMP","",8,"WEEK 8","TREATMENT","2013-11-05",64],
["CDISCPILOT01","OE","CDISC012","OD",17,"INTP","Interpretation","NORMAL","NORMAL","EYE","RIGHT","SLIT LAMP","",9,"WEEK 12","TREATMENT","2013-12-02",91],
["CDISCPILOT01","OE","CDISC012","OS",18,"INTP","Interpretation","NORMAL","NORMAL","EYE","LEFT","SLIT LAMP","",9,"WEEK 12","TREATMENT","2013-12-02",91],
["CDISCPILOT01","OE","CDISC012","OD",19,"INTP","Interpretation","NORMAL","NORMAL","EYE","RIGHT","SLIT LAMP","",10,"WEEK 16","TREATMENT","2014-01-12",132],
["CDISCPILOT01","OE","CDISC012","OS",20,"INTP","Interpretation","NORMAL","NORMAL","EYE","LEFT","SLIT LAMP","",10,"WEEK 16","TREATMENT","2014-01-12",132],
["CDISCPILOT01","OE","CDISC012","OD",21,"INTP","Interpretation","NORMAL","NORMAL","EYE","RIGHT","SLIT LAMP","",11,"WEEK 20","TREATMENT","2014-01-28",148],
["CDISCPILOT01","OE","CDISC012","OS",22,"INTP","Interpretation","NORMAL","NORMAL","EYE","LEFT","SLIT LAMP","",11,"WEEK 20","TREATMENT","2014-01-28",148],
["CDISCPILOT01","OE","CDISC013","OD",1,"INTP","Interpretation","NORMAL","NORMAL","EYE","RIGHT","SLIT LAMP","",1,"SCREENING 1","SCREENING","2013-07-09",-13],
["CDISCPILOT01","OE","CDISC013","OS",2,"INTP","Interpretation","NORMAL","NORMAL","EYE","LEFT","SLIT LAMP","",1,"SCREENING 1","SCREENING","2013-07-09",-13],
["CDISCPILOT01","OE","CDISC013","OD",3,"INTP","Interpretation","NORMAL","NORMAL","EYE","RIGHT","SLIT LAMP","",2,"SCREENING 2","SCREENING","2013-07-20",-2],
["CDISCPILOT01","OE","CDISC013","OS",4,"INTP","Interpretation","NORMAL","NORMAL","EYE","LEFT","SLIT LAMP","",2,"SCREENING 2","SCREENING","2013-07-20",-2],
["CDISCPILOT01","OE","CDISC013","OD",5,"INTP","Interpretation","NORMAL","NORMAL","EYE","RIGHT","SLIT LAMP","Y",3,"BASELINE","SCREENING","2013-07-22",1],
["CDISCPILOT01","OE","CDISC013","OS",6,"INTP","Interpretation","NORMAL","NORMAL","EYE","LEFT","SLIT LAMP","Y",3,"BASELINE","SCREENING","2013-07-22",1],
["CDISCPILOT01","OE","CDISC014","OD",1,"INTP","Interpretation","NORMAL","NORMAL","EYE","RIGHT","SLIT LAMP","",1,"SCREENING 1","SCREENING","2013-03-20",-14],
["CDISCPILOT01","OE","CDISC014","OS",2,"INTP","Interpretation","NORMAL","NORMAL","EYE","LEFT","SLIT LAMP","",1,"SCREENING 1","SCREENING","2013-03-20",-14],
["CDISCPILOT01","OE","CDISC014","OD",3,"INTP","Interpretation","NORMAL","NORMAL","EYE","RIGHT","SLIT LAMP","",2,"SCREENING 2","SCREENING","2013-04-01",-2],
["CDISCPILOT01","OE","CDISC014","OS",4,"INTP","Interpretation","NORMAL","NORMAL","EYE","LEFT","SLIT LAMP","",2,"SCREENING 2","SCREENING","2013-04-01",-2],
["CDISCPILOT01","OE","CDISC014","OD",5,"INTP","Interpretation","NORMAL","NORMAL","EYE","RIGHT","SLIT LAMP","Y",3,"BASELINE","SCREENING","2013-04-03",1],
["CDISCPILOT01","OE","CDISC014","OS",6,"INTP","Interpretation","NORMAL","NORMAL","EYE","LEFT","SLIT LAMP","Y",3,"BASELINE","SCREENING","2013-04-03",1],
["CDISCPILOT01","OE","CDISC014","OD",7,"INTP","Interpretation","NORMAL","NORMAL","EYE","RIGHT","SLIT LAMP","",4,"WEEK 2","TREATMENT","2013-04-17",15],
["CDISCPILOT01","OE","CDISC014","OS",8,"INTP","Interpretation","NORMAL","NORMAL","EYE","LEFT","SLIT LAMP","",4,"WEEK 2","TREATMENT","2013-04-17",15],
["CDISCPILOT01","OE","CDISC014","OD",9,"INTP","Interpretation","NORMAL","NORMAL","EYE","RIGHT","SLIT LAMP","",5,"WEEK 4","TREATMENT","2013-05-02",30],
["CDISCPILOT01","OE","CDISC014","OS",10,"INTP","Interpretation","NORMAL","NORMAL","EYE","LEFT","SLIT LAMP","",5,"WEEK 4","TREATMENT","2013-05-02",30],
["CDISCPILOT01","OE","CDISC014","OD",11,"INTP","Interpretation","NORMAL","NORMAL","EYE","RIGHT","SLIT LAMP","",201,"EARLY DISCONTINUATION RETRIEVAL","TREATMENT","2013-09-18",169],
["CDISCPILOT01","OE","CDISC014","OS",12,"INTP","Interpretation","NORMAL","NORMAL","EYE","LEFT","SLIT LAMP","",201,"EARLY DISCONTINUATION RETRIEVAL","TREATMENT","2013-09-18",169],
["CDISCPILOT01","OE","CDISC016","OD",1,"INTP","Interpretation","NORMAL","NORMAL","EYE","RIGHT","SLIT LAMP","",1,"SCREENING 1","SCREENING","2013-03-30",-4],
["CDISCPILOT01","OE","CDISC016","OS",2,"INTP","Interpretation","NORMAL","NORMAL","EYE","LEFT","SLIT LAMP","",1,"SCREENING 1","SCREENING","2013-03-30",-4],
["CDISCPILOT01","OE","CDISC016","OD",3,"INTP","Interpretation","NORMAL","NORMAL","EYE","RIGHT","SLIT LAMP","",2,"SCREENING 2","SCREENING","2013-04-01",-2],
["CDISCPILOT01","OE","CDISC016","OS",4,"INTP","Interpretation","NORMAL","NORMAL","EYE","LEFT","SLIT LAMP","",2,"SCREENING 2","SCREENING","2013-04-01",-2],
["CDISCPILOT01","OE","CDISC016","OD",5,"INTP","Interpretation","NORMAL","NORMAL","EYE","RIGHT","SLIT LAMP","Y",3,"BASELINE","SCREENING","2013-04-03",1],
["CDISCPILOT01","OE","CDISC016","OS",6,"INTP","Interpretation","NORMAL","NORMAL","EYE","LEFT","SLIT LAMP","Y",3,"BASELINE","SCREENING","2013-04-03",1],
["CDISCPILOT01","OE","CDISC016","OD",7,"INTP","Interpretation","NORMAL","NORMAL","EYE","RIGHT","SLIT LAMP","",4,"WEEK 2","TREATMENT","2013-04-17",15],
["CDISCPILOT01","OE","CDISC016","OS",8,"INTP","Interpretation","NORMAL","NORMAL","EYE","LEFT","SLIT LAMP","",4,"WEEK 2","TREATMENT","2013-04-17",15],
["CDISCPILOT01","OE","CDISC016","OD",9,"INTP","Interpretation","NORMAL","NORMAL","EYE","RIGHT","SLIT LAMP","",5,"WEEK 4","TREATMENT","2013-04-29",27],
["CDISCPILOT01","OE","CDISC016","OS",10,"INTP","Interpretation","NORMAL","NORMAL","EYE","LEFT","SLIT LAMP","",5,"WEEK 4","TREATMENT","2013-04-29",27],
["CDISCPILOT01","OE","CDISC016","OD",11,"INTP","Interpretation","NORMAL","NORMAL","EYE","RIGHT","SLIT LAMP","",8,"WEEK 8","TREATMENT","2013-05-28",56],
["CDISCPILOT01","OE","CDISC016","OS",12,"INTP","Interpretation","NORMAL","NORMAL","EYE","LEFT","SLIT LAMP","",8,"WEEK 8","TREATMENT","2013-05-28",56],
["CDISCPILOT01","OE","CDISC016","OD",13,"INTP","Interpretation","NORMAL","NORMAL","EYE","RIGHT","SLIT LAMP","",9,"WEEK 12","TREATMENT","2013-06-01",60],
["CDISCPILOT01","OE","CDISC016","OS",14,"INTP","Interpretation","NORMAL","NORMAL","EYE","LEFT","SLIT LAMP","",9,"WEEK 12","TREATMENT","2013-06-01",60],
["CDISCPILOT01","OE","CDISC016","OD",15,"INTP","Interpretation","NORMAL","NORMAL","EYE","RIGHT","SLIT LAMP","",201,"EARLY DISCONTINUATION RETRIEVAL","TREATMENT","2013-09-22",173],
["CDISCPILOT01","OE","CDISC016","OS",16,"INTP","Interpretation","NORMAL","NORMAL","EYE","LEFT","SLIT LAMP","",201,"EARLY DISCONTINUATION RETRIEVAL","TREATMENT","2013-09-22",173],
["CDISCPILOT01","OE","CDISC017","OD",1,"INTP","Interpretation","NORMAL","NORMAL","EYE","RIGHT","SLIT LAMP","",1,"SCREENING 1","SCREENING","2013-08-21",-31],
["CDISCPILOT01","OE","CDISC017","OS",2,"INTP","Interpretation","NORMAL","NORMAL","EYE","LEFT","SLIT LAMP","",1,"SCREENING 1","SCREENING","2013-08-21",-31],
["CDISCPILOT01","OE","CDISC017","OD",3,"INTP","Interpretation","NORMAL","NORMAL","EYE","RIGHT","SLIT LAMP","",2,"SCREENING 2","SCREENING","2013-09-19",-2],
["CDISCPILOT01","OE","CDISC017","OS",4,"INTP","Interpretation","NORMAL","NORMAL","EYE","LEFT","SLIT LAMP","",2,"SCREENING 2","SCREENING","2013-09-19",-2],
["CDISCPILOT01","OE","CDISC017","OD",5,"INTP","Interpretation","NORMAL","NORMAL","EYE","RIGHT","SLIT LAMP","Y",3,"BASELINE","SCREENING","2013-09-21",1],
["CDISCPILOT01","OE","CDISC017","OS",6,"INTP","Interpretation","NORMAL","NORMAL","EYE","LEFT","SLIT LAMP","Y",3,"BASELINE","SCREENING","2013-09-21",1],
["CDISCPILOT01","OE","CDISC017","OD",7,"INTP","Interpretation","NORMAL","NORMAL","EYE","RIGHT","SLIT LAMP","",4,"WEEK 2","TREATMENT","2013-10-03",13],
["CDISCPILOT01","OE","CDISC017","OS",8,"INTP","Interpretation","NORMAL","NORMAL","EYE","LEFT","SLIT LAMP","",4,"WEEK 2","TREATMENT","2013-10-03",13],
["CDISCPILOT01","OE","CDISC017","OD",9,"INTP","Interpretation","NORMAL","NORMAL","EYE","RIGHT","SLIT LAMP","",5,"WEEK 4","TREATMENT","2013-10-17",27],
["CDISCPILOT01","OE","CDISC017","OS",10,"INTP","Interpretation","NORMAL","NORMAL","EYE","LEFT","SLIT LAMP","",5,"WEEK 4","TREATMENT","2013-10-17",27],
["CDISCPILOT01","OE","CDISC017","OD",11,"INTP","Interpretation","NORMAL","NORMAL","EYE","RIGHT","SLIT LAMP","",8,"WEEK 8","TREATMENT","2013-11-16",57],
["CDISCPILOT01","OE","CDISC017","OS",12,"INTP","Interpretation","NORMAL","NORMAL","EYE","LEFT","SLIT LAMP","",8,"WEEK 8","TREATMENT","2013-11-16",57],
["CDISCPILOT01","OE","CDISC017","OD",13,"INTP","Interpretation","NORMAL","NORMAL","EYE","RIGHT","SLIT LAMP","",9,"WEEK 12","TREATMENT","2013-12-14",85],
["CDISCPILOT01","OE","CDISC017","OS",14,"INTP","Interpretation","NORMAL","NORMAL","EYE","LEFT","SLIT LAMP","",9,"WEEK 12","TREATMENT","2013-12-14",85],
["CDISCPILOT01","OE","CDISC017","OD",15,"INTP","Interpretation","NORMAL","NORMAL","EYE","RIGHT","SLIT LAMP","",10,"WEEK 16","TREATMENT","2014-01-11",113],
["CDISCPILOT01","OE","CDISC017","OS",16,"INTP","Interpretation","NORMAL","NORMAL","EYE","LEFT","SLIT LAMP","",10,"WEEK 16","TREATMENT","2014-01-11",113],
["CDISCPILOT01","OE","CDISC017","OD",17,"INTP","Interpretation","NORMAL","NORMAL","EYE","RIGHT","SLIT LAMP","",11,"WEEK 20","TREATMENT","2014-02-08",141],
["CDISCPILOT01","OE","CDISC017","OS",18,"INTP","Interpretation","NORMAL","NORMAL","EYE","LEFT","SLIT LAMP","",11,"WEEK 20","TREATMENT","2014-02-08",141],
["CDISCPILOT01","OE","CDISC017","OD",19,"INTP","Interpretation","NORMAL","NORMAL","EYE","RIGHT","SLIT LAMP","",201,"EARLY DISCONTINUATION RETRIEVAL","TREATMENT","2014-03-08",169],
["CDISCPILOT01","OE","CDISC017","OS",20,"INTP","Interpretation","NORMAL","NORMAL","EYE","LEFT","SLIT LAMP","",201,"EARLY DISCONTINUATION RETRIEVAL","TREATMENT","2014-03-08",169],
["CDISCPILOT01","OE","CDISC018","OD",1,"INTP","Interpretation","NORMAL","NORMAL","EYE","RIGHT","SLIT LAMP","",1,"SCREENING 1","SCREENING","2012-12-13",-4],
["CDISCPILOT01","OE","CDISC018","OS",2,"INTP","Interpretation","NORMAL","NORMAL","EYE","LEFT","SLIT LAMP","",1,"SCREENING 1","SCREENING","2012-12-13",-4],
["CDISCPILOT01","OE","CDISC018","OD",3,"INTP","Interpretation","NORMAL","NORMAL","EYE","RIGHT","SLIT LAMP","",2,"SCREENING 2","SCREENING","2012-12-15",-2],
["CDISCPILOT01","OE","CDISC018","OS",4,"INTP","Interpretation","NORMAL","NORMAL","EYE","LEFT","SLIT LAMP","",2,"SCREENING 2","SCREENING","2012-12-15",-2],
["CDISCPILOT01","OE","CDISC018","OD",5,"INTP","Interpretation","NORMAL","NORMAL","EYE","RIGHT","SLIT LAMP","Y",3,"BASELINE","SCREENING","2012-12-17",1],
["CDISCPILOT01","OE","CDISC018","OS",6,"INTP","Interpretation","NORMAL","NORMAL","EYE","LEFT","SLIT LAMP","Y",3,"BASELINE","SCREENING","2012-12-17",1],
["CDISCPILOT01","OE","CDISC018","OD",7,"INTP","Interpretation","NORMAL","NORMAL","EYE","RIGHT","SLIT LAMP","",4,"WEEK 2","TREATMENT","2012-12-31",15],
["CDISCPILOT01","OE","CDISC018","OS",8,"INTP","Interpretation","NORMAL","NORMAL","EYE","LEFT","SLIT LAMP","",4,"WEEK 2","TREATMENT","2012-12-31",15],
["CDISCPILOT01","OE","CDISC018","OD",9,"INTP","Interpretation","NORMAL","NORMAL","EYE","RIGHT","SLIT LAMP","",5,"WEEK 4","TREATMENT","2013-01-17",32],
["CDISCPILOT01","OE","CDISC018","OS",10,"INTP","Interpretation","NORMAL","NORMAL","EYE","LEFT","SLIT LAMP","",5,"WEEK 4","TREATMENT","2013-01-17",32],
["CDISCPILOT01","OE","CDISC018","OD",11,"INTP","Interpretation","NORMAL","NORMAL","EYE","RIGHT","SLIT LAMP","",8,"WEEK 8","TREATMENT","2013-02-18",64],
["CDISCPILOT01","OE","CDISC018","OS",12,"INTP","Interpretation","NORMAL","NORMAL","EYE","LEFT","SLIT LAMP","",8,"WEEK 8","TREATMENT","2013-02-18",64],
["CDISCPILOT01","OE","CDISC018","OD",13,"INTP","Interpretation","NORMAL","NORMAL","EYE","RIGHT","SLIT LAMP","",201,"EARLY DISCONTINUATION RETRIEVAL","TREATMENT","2013-06-03",169],
["CDISCPILOT01","OE","CDISC018","OS",14,"INTP","Interpretation","ABNORMAL","ABNORMAL","EYE","LEFT","SLIT LAMP","",201,"EARLY DISCONTINUATION RETRIEVAL","TREATMENT","2013-06-03",169],
["CDISCPILOT01","OE","CDISC018","OS",15,"ABDETAIL","Abnormality Detail","INCREASED TRANSPARENCY IN RETROILLUMINATION","INCREASED TRANSPARENCY IN RETROILLUMINATION","IRIS","LEFT","SLIT LAMP","",201,"EARLY DISCONTINUATION RETRIEVAL","TREATMENT","2013-06-03",169]
]}}}
}