{
  "clinicalData":{"studyOID":"cdisc.com/CDISCPILOT01","metaDataVersionOID":"MDV.MSGv2.0.SDTMIG.3.3.SDTM.1.7","itemGroupData": {"IG.RELREC":{"records":6,"name":"RELREC","label":"Related Records","items":[{"OID": "IT.RELREC.STUDYID", "name":"STUDYID", "label":"Study Identifier", "type":"string"},{"OID": "IT.RELREC.RDOMAIN", "name":"RDOMAIN", "label":"Related Domain Abbreviation", "type":"string"},{"OID": "IT.RELREC.USUBJID", "name":"USUBJID", "label":"Unique Subject Identifier", "type":"string"},{"OID": "IT.RELREC.IDVAR", "name":"IDVAR", "label":"Identifying Variable", "type":"string"},{"OID": "IT.RELREC.IDVARVAL", "name":"IDVARVAL", "label":"Identifying Variable Value", "type":"string"},{"OID": "IT.RELREC.RELTYPE", "name":"RELTYPE", "label":"Relationship Type", "type":"string"},{"OID": "IT.RELREC.RELID", "name":"RELID", "label":"Relationship Identifier", "type":"string"}],"itemData": [
["CDISCPILOT01","AE","","AELNKID","","ONE","AEDS"],
["CDISCPILOT01","DS","","DSLNKID","","ONE","AEDS"],
["CDISCPILOT01","AE","","AELNKID","","ONE","AEDD"],
["CDISCPILOT01","DD","","DDLNKID","","ONE","AEDD"],
["CDISCPILOT01","AE","","AELNKID","","ONE","AEFA"],
["CDISCPILOT01","FA","","FALNKGRP","","MANY","AEFA"]
]}}}
}
