{
  "clinicalData":{"studyOID":"cdisc.com/CDISCPILOT01","metaDataVersionOID":"MDV.MSGv2.0.SDTMIG.3.3.SDTM.1.7","itemGroupData": {"IG.SE":{"records":43,"name":"SE","label":"Subject Elements","items":[{"OID": "IT.SE.STUDYID", "name":"STUDYID", "label":"Study Identifier", "type":"string"},{"OID": "IT.SE.DOMAIN", "name":"DOMAIN", "label":"Domain Abbreviation", "type":"string"},{"OID": "IT.SE.USUBJID", "name":"USUBJID", "label":"Unique Subject Identifier", "type":"string"},{"OID": "IT.SE.SESEQ", "name":"SESEQ", "label":"Sequence Number", "type":"integer"},{"OID": "IT.SE.ETCD", "name":"ETCD", "label":"Element Code", "type":"string"},{"OID": "IT.SE.ELEMENT", "name":"ELEMENT", "label":"Description of Element", "type":"string"},{"OID": "IT.SE.EPOCH", "name":"EPOCH", "label":"Epoch", "type":"string"},{"OID": "IT.SE.SESTDTC", "name":"SESTDTC", "label":"Start Date/Time of Element", "type":"string"},{"OID": "IT.SE.SEENDTC", "name":"SEENDTC", "label":"End Date/Time of Element", "type":"string"},{"OID": "IT.SE.SESTDY", "name":"SESTDY", "label":"Study Day of Start of Element", "type":"integer"},{"OID": "IT.SE.SEENDY", "name":"SEENDY", "label":"Study Day of End of Element", "type":"integer"}],"itemData": [
["CDISCPILOT01","SE","CDISC001",1,"SCREEN","Screening","SCREENING","2012-11-23","2012-11-30",-7,1],
["CDISCPILOT01","SE","CDISC001",2,"LOW","Zanomaline 54 mg","TREATMENT","2012-11-30","2013-05-20",1,172],
["CDISCPILOT01","SE","CDISC002",1,"SCREEN","Screening","SCREENING","2012-10-30","2012-11-15",-16,1],
["CDISCPILOT01","SE","CDISC002",2,"LOW","Zanomaline 54 mg","TREATMENT","2012-11-15","2013-01-14",1,61],
["CDISCPILOT01","SE","CDISC003",1,"SCREEN","Screening","SCREENING","2013-08-20","2013-08-29",-9,1],
["CDISCPILOT01","SE","CDISC003",2,"TITRATE","Zanomaline 54 mg Titration","TREATMENT","2013-08-29","2013-09-15",1,18],
["CDISCPILOT01","SE","CDISC003",3,"HIGH","Zanomaline 81 mg","TREATMENT","2013-09-15","2014-02-13",18,169],
["CDISCPILOT01","SE","CDISC004",1,"SCREEN","Screening","SCREENING","2013-10-01","2013-10-08",-7,1],
["CDISCPILOT01","SE","CDISC004",2,"PLACEBO","Placebo","TREATMENT","2013-10-08","2014-03-18",1,162],
["CDISCPILOT01","SE","CDISC005",1,"SCREEN","Screening","SCREENING","2013-01-22","2013-02-04",-13,1],
["CDISCPILOT01","SE","CDISC005",2,"TITRATE","Zanomaline 54 mg Titration","TREATMENT","2013-02-04","2013-02-19",1,16],
["CDISCPILOT01","SE","CDISC005",3,"HIGH","Zanomaline 81 mg","TREATMENT","2013-02-19","2013-07-30",16,177],
["CDISCPILOT01","SE","CDISC005",4,"TITRATE","Zanomaline 54 mg Titration","TREATMENT","2013-07-30","2013-08-06",177,184],
["CDISCPILOT01","SE","CDISC006",1,"SCREEN","Screening","SCREENING","2013-02-25","2013-03-19",-22,1],
["CDISCPILOT01","SE","CDISC006",2,"LOW","Zanomaline 54 mg","TREATMENT","2013-03-19","2013-04-30",1,43],
["CDISCPILOT01","SE","CDISC007",1,"SCREEN","Screening","SCREENING","2012-12-31","2013-01-05",-5,1],
["CDISCPILOT01","SE","CDISC007",2,"TITRATE","Zanomaline 54 mg Titration","TREATMENT","2013-01-05","2013-01-18",1,14],
["CDISCPILOT01","SE","CDISC007",3,"HIGH","Zanomaline 81 mg","TREATMENT","2013-01-18","2013-06-20",14,167],
["CDISCPILOT01","SE","CDISC008",1,"SCREEN","Screening","SCREENING","2014-05-01","2014-05-11",-10,1],
["CDISCPILOT01","SE","CDISC008",2,"PLACEBO","Placebo","TREATMENT","2014-05-11","2014-10-30",1,173],
["CDISCPILOT01","SE","CDISC009",1,"SCREEN","Screening","SCREENING","2012-10-06","2012-10-22",-16,1],
["CDISCPILOT01","SE","CDISC009",2,"PLACEBO","Placebo","TREATMENT","2012-10-22","2013-04-28",1,189],
["CDISCPILOT01","SE","CDISC010",1,"SCREEN","Screening","SCREENING","2013-09-08","2013-09-21",-13,1],
["CDISCPILOT01","SE","CDISC010",2,"TITRATE","Zanomaline 54 mg Titration","TREATMENT","2013-09-21","2013-09-26",1,6],
["CDISCPILOT01","SE","CDISC011",1,"SCREEN","Screening","SCREENING","2012-11-21","2012-12-07",-16,1],
["CDISCPILOT01","SE","CDISC011",2,"TITRATE","Zanomaline 54 mg Titration","TREATMENT","2012-12-07","2012-12-21",1,15],
["CDISCPILOT01","SE","CDISC011",3,"HIGH","Zanomaline 81 mg","TREATMENT","2012-12-21","2013-05-22",15,167],
["CDISCPILOT01","SE","CDISC011",4,"TITRATE","Zanomaline 54 mg Titration","TREATMENT","2013-05-22","2013-07-05",167,211],
["CDISCPILOT01","SE","CDISC012",1,"SCREEN","Screening","SCREENING","2013-08-24","2013-09-03",-10,1],
["CDISCPILOT01","SE","CDISC012",2,"PLACEBO","Placebo","TREATMENT","2013-09-03","2014-01-28",1,148],
["CDISCPILOT01","SE","CDISC013",1,"SCREEN","Screening","SCREENING","2013-07-09","2013-07-22",-13,1],
["CDISCPILOT01","SE","CDISC013",2,"PLACEBO","Placebo","TREATMENT","2013-07-22","2013-08-02",1,12],
["CDISCPILOT01","SE","CDISC014",1,"SCREEN","Screening","SCREENING","2013-03-20","2013-04-03",-14,1],
["CDISCPILOT01","SE","CDISC014",2,"TITRATE","Zanomaline 54 mg Titration","TREATMENT","2013-04-03","2013-04-17",1,15],
["CDISCPILOT01","SE","CDISC014",3,"HIGH","Zanomaline 81 mg","TREATMENT","2013-04-17","2013-09-18",15,169],
["CDISCPILOT01","SE","CDISC015",1,"SCREEN","Screening","SCREENING","2014-03-17","2014-03-17",null,null],
["CDISCPILOT01","SE","CDISC016",1,"SCREEN","Screening","SCREENING","2013-03-30","2013-04-03",-4,1],
["CDISCPILOT01","SE","CDISC016",2,"LOW","Zanomaline 54 mg","TREATMENT","2013-04-03","2013-09-22",1,173],
["CDISCPILOT01","SE","CDISC017",1,"SCREEN","Screening","SCREENING","2013-08-21","2013-09-21",-31,1],
["CDISCPILOT01","SE","CDISC017",2,"LOW","Zanomaline 54 mg","TREATMENT","2013-09-21","2014-03-08",1,169],
["CDISCPILOT01","SE","CDISC018",1,"SCREEN","Screening","SCREENING","2012-12-13","2012-12-17",-4,1],
["CDISCPILOT01","SE","CDISC018",2,"TITRATE","Zanomaline 54 mg Titration","TREATMENT","2012-12-17","2012-12-31",1,15],
["CDISCPILOT01","SE","CDISC018",3,"HIGH","Zanomaline 81 mg","TREATMENT","2012-12-31","2013-06-03",15,169]
]}}}
}