{
  "clinicalData":{"studyOID":"cdisc.com/CDISCPILOT01","metaDataVersionOID":"MDV.MSGv2.0.SDTMIG.3.3.SDTM.1.7","itemGroupData": {"IG.SUPPEC":{"records":7,"name":"SUPPEC","label":"Supplemental Qualifiers for EC","items":[{"OID": "ITEMGROUPDATASEQ", "name": "ITEMGROUPDATASEQ", "label": "Record Identifier", "type": "integer"},{"OID": "IT.SUPPEC.STUDYID", "name":"STUDYID", "label":"Study Identifier", "type":"string", "length":12},{"OID": "IT.SUPPEC.RDOMAIN", "name":"RDOMAIN", "label":"Related Domain Abbreviation", "type":"string", "length":6},{"OID": "IT.SUPPEC.USUBJID", "name":"USUBJID", "label":"Unique Subject Identifier", "type":"string", "length":8},{"OID": "IT.SUPPEC.IDVAR", "name":"IDVAR", "label":"Identifying Variable", "type":"string", "length":200},{"OID": "IT.SUPPEC.IDVARVAL", "name":"IDVARVAL", "label":"Identifying Variable Value", "type":"string", "length":200},{"OID": "IT.SUPPEC.QNAM", "name":"QNAM", "label":"Qualifier Variable Name", "type":"string", "length":8},{"OID": "IT.SUPPEC.QLABEL", "name":"QLABEL", "label":"Qualifier Variable Label", "type":"string", "length":40},{"OID": "IT.SUPPEC.QVAL", "name":"QVAL", "label":"Data Value", "type":"string", "length":200},{"OID": "IT.SUPPEC.QORIG", "name":"QORIG", "label":"Origin", "type":"string", "length":13},{"OID": "IT.SUPPEC.QEVAL", "name":"QEVAL", "label":"Evaluator", "type":"string", "length":200}],"itemData": [
[1,"CDISCPILOT01","EC","CDISC009","ECSEQ","122","ECREASOC","Reason for Occur Value","INVESTIGATOR DECISION","COLLECTED","INVESTIGATOR"],
[2,"CDISCPILOT01","EC","CDISC009","ECSEQ","123","ECREASOC","Reason for Occur Value","INVESTIGATOR DECISION","COLLECTED","INVESTIGATOR"],
[3,"CDISCPILOT01","EC","CDISC009","ECSEQ","124","ECREASOC","Reason for Occur Value","INVESTIGATOR DECISION","COLLECTED","INVESTIGATOR"],
[4,"CDISCPILOT01","EC","CDISC009","ECSEQ","125","ECREASOC","Reason for Occur Value","INVESTIGATOR DECISION","COLLECTED","INVESTIGATOR"],
[5,"CDISCPILOT01","EC","CDISC009","ECSEQ","126","ECREASOC","Reason for Occur Value","INVESTIGATOR DECISION","COLLECTED","INVESTIGATOR"],
[6,"CDISCPILOT01","EC","CDISC009","ECSEQ","127","ECREASOC","Reason for Occur Value","INVESTIGATOR DECISION","COLLECTED","INVESTIGATOR"],
[7,"CDISCPILOT01","EC","CDISC009","ECSEQ","128","ECREASOC","Reason for Occur Value","INVESTIGATOR DECISION","COLLECTED","INVESTIGATOR"]
]}}}
}
