{
  "clinicalData":{"studyOID":"cdisc.com/CDISCPILOT01","metaDataVersionOID":"MDV.MSGv2.0.SDTMIG.3.3.SDTM.1.7","itemGroupData": {"IG.VS":{"records":1414,"name":"VS","label":"Vital Signs","items":[{"OID": "IT.VS.STUDYID", "name":"STUDYID", "label":"Study Identifier", "type":"string", "length":12},{"OID": "IT.VS.DOMAIN", "name":"DOMAIN", "label":"Domain Abbreviation", "type":"string", "length":2},{"OID": "IT.VS.USUBJID", "name":"USUBJID", "label":"Unique Subject Identifier", "type":"string", "length":8},{"OID": "IT.VS.VSSEQ", "name":"VSSEQ", "label":"Sequence Number", "type":"integer"},{"OID": "IT.VS.VSTESTCD", "name":"VSTESTCD", "label":"Vital Signs Test Short Name", "type":"string", "length":6},{"OID": "IT.VS.VSTEST", "name":"VSTEST", "label":"Vital Signs Test Name", "type":"string", "length":24},{"OID": "IT.VS.VSPOS", "name":"VSPOS", "label":"Vital Signs Position of Subject", "type":"string", "length":8},{"OID": "IT.VS.VSORRES", "name":"VSORRES", "label":"Result or Finding in Original Units", "type":"string", "length":8},{"OID": "IT.VS.VSORRESU", "name":"VSORRESU", "label":"Original Units", "type":"string", "length":9},{"OID": "IT.VS.VSSTRESC", "name":"VSSTRESC", "label":"Character Result/Finding in Std Format", "type":"string", "length":200},{"OID": "IT.VS.VSSTRESN", "name":"VSSTRESN", "label":"Numeric Result/Finding in Standard Units", "type":"float", "length":8, "fractionDigits":2},{"OID": "IT.VS.VSSTRESU", "name":"VSSTRESU", "label":"Standard Units", "type":"string", "length":9},{"OID": "IT.VS.VSSTAT", "name":"VSSTAT", "label":"Completion Status", "type":"string", "length":8},{"OID": "IT.VS.VSLOC", "name":"VSLOC", "label":"Location of Vital Signs Measurement", "type":"string", "length":11},{"OID": "IT.VS.VSLOBXFL", "name":"VSLOBXFL", "label":"Last Observation Before Exposure Flag", "type":"string", "length":1},{"OID": "IT.VS.VSREPNUM", "name":"VSREPNUM", "label":"Repetition Number", "type":"integer"},{"OID": "IT.VS.VISITNUM", "name":"VISITNUM", "label":"Visit Number", "type":"float", "length":8, "fractionDigits":2},{"OID": "IT.VS.VISIT", "name":"VISIT", "label":"Visit Name", "type":"string", "length":200},{"OID": "IT.VS.EPOCH", "name":"EPOCH", "label":"Epoch", "type":"string", "length":9},{"OID": "IT.VS.VSDTC", "name":"VSDTC", "label":"Date/Time of Measurements", "type":"string"},{"OID": "IT.VS.VSDY", "name":"VSDY", "label":"Study Day of Vital Signs", "type":"integer"}],"itemData": [
["CDISCPILOT01","VS","CDISC001",1,"DIABP","Diastolic Blood Pressure","STANDING","71","mmHg","71",71,"mmHg","","","","",1,"SCREENING 1","SCREENING","2012-11-23",-7],
["CDISCPILOT01","VS","CDISC001",2,"DIABP","Diastolic Blood Pressure","STANDING","71","mmHg","71",71,"mmHg","","","","",2,"SCREENING 2","SCREENING","2012-11-28",-2],
["CDISCPILOT01","VS","CDISC001",3,"DIABP","Diastolic Blood Pressure","STANDING","83","mmHg","83",83,"mmHg","","","Y","",3,"BASELINE","SCREENING","2012-11-30",1],
["CDISCPILOT01","VS","CDISC001",4,"DIABP","Diastolic Blood Pressure","STANDING","79","mmHg","79",79,"mmHg","","","","",4,"WEEK 2","TREATMENT","2012-12-13",14],
["CDISCPILOT01","VS","CDISC001",5,"DIABP","Diastolic Blood Pressure","STANDING","68","mmHg","68",68,"mmHg","","","","",5,"WEEK 4","TREATMENT","2012-12-26",27],
["CDISCPILOT01","VS","CDISC001",6,"DIABP","Diastolic Blood Pressure","SUPINE","77","mmHg","77",77,"mmHg","","","",1,7,"WEEK 6","TREATMENT","2013-01-10",42],
["CDISCPILOT01","VS","CDISC001",7,"DIABP","Diastolic Blood Pressure","STANDING","71","mmHg","71",71,"mmHg","","","",2,7,"WEEK 6","TREATMENT","2013-01-10",42],
["CDISCPILOT01","VS","CDISC001",8,"DIABP","Diastolic Blood Pressure","STANDING","69","mmHg","69",69,"mmHg","","","",3,7,"WEEK 6","TREATMENT","2013-01-10",42],
["CDISCPILOT01","VS","CDISC001",9,"DIABP","Diastolic Blood Pressure","SUPINE","76","mmHg","76",76,"mmHg","","","",1,8,"WEEK 8","TREATMENT","2013-01-23",55],
["CDISCPILOT01","VS","CDISC001",10,"DIABP","Diastolic Blood Pressure","STANDING","52","mmHg","52",52,"mmHg","","","",2,8,"WEEK 8","TREATMENT","2013-01-23",55],
["CDISCPILOT01","VS","CDISC001",11,"DIABP","Diastolic Blood Pressure","STANDING","60","mmHg","60",60,"mmHg","","","",3,8,"WEEK 8","TREATMENT","2013-01-23",55],
["CDISCPILOT01","VS","CDISC001",12,"DIABP","Diastolic Blood Pressure","SUPINE","68","mmHg","68",68,"mmHg","","","",1,201,"EARLY DISCONTINUATION RETRIEVAL","TREATMENT","2013-05-20",172],
["CDISCPILOT01","VS","CDISC001",13,"DIABP","Diastolic Blood Pressure","STANDING","72","mmHg","72",72,"mmHg","","","",2,201,"EARLY DISCONTINUATION RETRIEVAL","TREATMENT","2013-05-20",172],
["CDISCPILOT01","VS","CDISC001",14,"DIABP","Diastolic Blood Pressure","STANDING","68","mmHg","68",68,"mmHg","","","",3,201,"EARLY DISCONTINUATION RETRIEVAL","TREATMENT","2013-05-20",172],
["CDISCPILOT01","VS","CDISC001",15,"HEIGHT","Height","","71.5","in","181.61",181.61,"cm","","","","",1,"SCREENING 1","SCREENING","2012-11-23",-7],
["CDISCPILOT01","VS","CDISC001",16,"PULSE","Pulse Rate","STANDING","51","beats/min","51",51,"beats/min","","","","",1,"SCREENING 1","SCREENING","2012-11-23",-7],
["CDISCPILOT01","VS","CDISC001",17,"PULSE","Pulse Rate","STANDING","50","beats/min","50",50,"beats/min","","","","",2,"SCREENING 2","SCREENING","2012-11-28",-2],
["CDISCPILOT01","VS","CDISC001",18,"PULSE","Pulse Rate","STANDING","50","beats/min","50",50,"beats/min","","","Y","",3,"BASELINE","SCREENING","2012-11-30",1],
["CDISCPILOT01","VS","CDISC001",19,"PULSE","Pulse Rate","STANDING","53","beats/min","53",53,"beats/min","","","","",4,"WEEK 2","TREATMENT","2012-12-13",14],
["CDISCPILOT01","VS","CDISC001",20,"PULSE","Pulse Rate","STANDING","51","beats/min","51",51,"beats/min","","","","",5,"WEEK 4","TREATMENT","2012-12-26",27],
["CDISCPILOT01","VS","CDISC001",21,"PULSE","Pulse Rate","SUPINE","52","beats/min","52",52,"beats/min","","","",1,7,"WEEK 6","TREATMENT","2013-01-10",42],
["CDISCPILOT01","VS","CDISC001",22,"PULSE","Pulse Rate","STANDING","62","beats/min","62",62,"beats/min","","","",2,7,"WEEK 6","TREATMENT","2013-01-10",42],
["CDISCPILOT01","VS","CDISC001",23,"PULSE","Pulse Rate","STANDING","62","beats/min","62",62,"beats/min","","","",3,7,"WEEK 6","TREATMENT","2013-01-10",42],
["CDISCPILOT01","VS","CDISC001",24,"PULSE","Pulse Rate","SUPINE","50","beats/min","50",50,"beats/min","","","",1,8,"WEEK 8","TREATMENT","2013-01-23",55],
["CDISCPILOT01","VS","CDISC001",25,"PULSE","Pulse Rate","STANDING","52","beats/min","52",52,"beats/min","","","",2,8,"WEEK 8","TREATMENT","2013-01-23",55],
["CDISCPILOT01","VS","CDISC001",26,"PULSE","Pulse Rate","STANDING","54","beats/min","54",54,"beats/min","","","",3,8,"WEEK 8","TREATMENT","2013-01-23",55],
["CDISCPILOT01","VS","CDISC001",27,"PULSE","Pulse Rate","SUPINE","79","beats/min","79",79,"beats/min","","","",1,201,"EARLY DISCONTINUATION RETRIEVAL","TREATMENT","2013-05-20",172],
["CDISCPILOT01","VS","CDISC001",28,"PULSE","Pulse Rate","STANDING","98","beats/min","98",98,"beats/min","","","",2,201,"EARLY DISCONTINUATION RETRIEVAL","TREATMENT","2013-05-20",172],
["CDISCPILOT01","VS","CDISC001",29,"PULSE","Pulse Rate","STANDING","94","beats/min","94",94,"beats/min","","","",3,201,"EARLY DISCONTINUATION RETRIEVAL","TREATMENT","2013-05-20",172],
["CDISCPILOT01","VS","CDISC001",30,"SYSBP","Systolic Blood Pressure","STANDING","137","mmHg","137",137,"mmHg","","","","",1,"SCREENING 1","SCREENING","2012-11-23",-7],
["CDISCPILOT01","VS","CDISC001",31,"SYSBP","Systolic Blood Pressure","STANDING","137","mmHg","137",137,"mmHg","","","","",2,"SCREENING 2","SCREENING","2012-11-28",-2],
["CDISCPILOT01","VS","CDISC001",32,"SYSBP","Systolic Blood Pressure","STANDING","130","mmHg","130",130,"mmHg","","","Y","",3,"BASELINE","SCREENING","2012-11-30",1],
["CDISCPILOT01","VS","CDISC001",33,"SYSBP","Systolic Blood Pressure","STANDING","122","mmHg","122",122,"mmHg","","","","",4,"WEEK 2","TREATMENT","2012-12-13",14],
["CDISCPILOT01","VS","CDISC001",34,"SYSBP","Systolic Blood Pressure","STANDING","115","mmHg","115",115,"mmHg","","","","",5,"WEEK 4","TREATMENT","2012-12-26",27],
["CDISCPILOT01","VS","CDISC001",35,"SYSBP","Systolic Blood Pressure","SUPINE","131","mmHg","131",131,"mmHg","","","",1,7,"WEEK 6","TREATMENT","2013-01-10",42],
["CDISCPILOT01","VS","CDISC001",36,"SYSBP","Systolic Blood Pressure","STANDING","107","mmHg","107",107,"mmHg","","","",2,7,"WEEK 6","TREATMENT","2013-01-10",42],
["CDISCPILOT01","VS","CDISC001",37,"SYSBP","Systolic Blood Pressure","STANDING","104","mmHg","104",104,"mmHg","","","",3,7,"WEEK 6","TREATMENT","2013-01-10",42],
["CDISCPILOT01","VS","CDISC001",38,"SYSBP","Systolic Blood Pressure","SUPINE","123","mmHg","123",123,"mmHg","","","",1,8,"WEEK 8","TREATMENT","2013-01-23",55],
["CDISCPILOT01","VS","CDISC001",39,"SYSBP","Systolic Blood Pressure","STANDING","113","mmHg","113",113,"mmHg","","","",2,8,"WEEK 8","TREATMENT","2013-01-23",55],
["CDISCPILOT01","VS","CDISC001",40,"SYSBP","Systolic Blood Pressure","STANDING","98","mmHg","98",98,"mmHg","","","",3,8,"WEEK 8","TREATMENT","2013-01-23",55],
["CDISCPILOT01","VS","CDISC001",41,"SYSBP","Systolic Blood Pressure","SUPINE","99","mmHg","99",99,"mmHg","","","",1,201,"EARLY DISCONTINUATION RETRIEVAL","TREATMENT","2013-05-20",172],
["CDISCPILOT01","VS","CDISC001",42,"SYSBP","Systolic Blood Pressure","STANDING","99","mmHg","99",99,"mmHg","","","",2,201,"EARLY DISCONTINUATION RETRIEVAL","TREATMENT","2013-05-20",172],
["CDISCPILOT01","VS","CDISC001",43,"SYSBP","Systolic Blood Pressure","STANDING","99","mmHg","99",99,"mmHg","","","",3,201,"EARLY DISCONTINUATION RETRIEVAL","TREATMENT","2013-05-20",172],
["CDISCPILOT01","VS","CDISC001",44,"TEMP","Temperature","","97.4","F","36.33",36.33,"C","","ORAL CAVITY","","",1,"SCREENING 1","SCREENING","2012-11-23",-7],
["CDISCPILOT01","VS","CDISC001",45,"TEMP","Temperature","","97.2","F","36.22",36.22,"C","","ORAL CAVITY","","",2,"SCREENING 2","SCREENING","2012-11-28",-2],
["CDISCPILOT01","VS","CDISC001",46,"TEMP","Temperature","","98.0","F","36.67",36.67,"C","","ORAL CAVITY","Y","",3,"BASELINE","SCREENING","2012-11-30",1],
["CDISCPILOT01","VS","CDISC001",47,"TEMP","Temperature","","98.0","F","36.67",36.67,"C","","ORAL CAVITY","","",4,"WEEK 2","TREATMENT","2012-12-13",14],
["CDISCPILOT01","VS","CDISC001",48,"TEMP","Temperature","","97.7","F","36.5",36.5,"C","","ORAL CAVITY","","",5,"WEEK 4","TREATMENT","2012-12-26",27],
["CDISCPILOT01","VS","CDISC001",49,"TEMP","Temperature","","97.6","F","36.44",36.44,"C","","ORAL CAVITY","","",7,"WEEK 6","TREATMENT","2013-01-10",42],
["CDISCPILOT01","VS","CDISC001",50,"TEMP","Temperature","","97.6","F","36.44",36.44,"C","","ORAL CAVITY","","",8,"WEEK 8","TREATMENT","2013-01-23",55],
["CDISCPILOT01","VS","CDISC001",51,"TEMP","Temperature","","97.4","F","36.33",36.33,"C","","ORAL CAVITY","","",201,"EARLY DISCONTINUATION RETRIEVAL","TREATMENT","2013-05-20",172],
["CDISCPILOT01","VS","CDISC001",52,"WEIGHT","Weight","","173.5","LB","78.7",78.7,"kg","","","","",1,"SCREENING 1","SCREENING","2012-11-23",-7],
["CDISCPILOT01","VS","CDISC001",53,"WEIGHT","Weight","","174.0","LB","78.93",78.93,"kg","","","Y","",3,"BASELINE","SCREENING","2012-11-30",1],
["CDISCPILOT01","VS","CDISC001",54,"WEIGHT","Weight","","174.0","LB","78.93",78.93,"kg","","","","",4,"WEEK 2","TREATMENT","2012-12-13",14],
["CDISCPILOT01","VS","CDISC001",55,"WEIGHT","Weight","","173.0","LB","78.47",78.47,"kg","","","","",5,"WEEK 4","TREATMENT","2012-12-26",27],
["CDISCPILOT01","VS","CDISC001",56,"WEIGHT","Weight","","173.0","LB","78.47",78.47,"kg","","","","",7,"WEEK 6","TREATMENT","2013-01-10",42],
["CDISCPILOT01","VS","CDISC001",57,"WEIGHT","Weight","","173.0","LB","78.47",78.47,"kg","","","","",8,"WEEK 8","TREATMENT","2013-01-23",55],
["CDISCPILOT01","VS","CDISC002",1,"DIABP","Diastolic Blood Pressure","STANDING","60","mmHg","60",60,"mmHg","","","","",1,"SCREENING 1","SCREENING","2012-10-30",-16],
["CDISCPILOT01","VS","CDISC002",2,"DIABP","Diastolic Blood Pressure","STANDING","64","mmHg","64",64,"mmHg","","","","",2,"SCREENING 2","SCREENING","2012-11-14",-1],
["CDISCPILOT01","VS","CDISC002",3,"DIABP","Diastolic Blood Pressure","STANDING","64","mmHg","64",64,"mmHg","","","Y","",3,"BASELINE","SCREENING","2012-11-15",1],
["CDISCPILOT01","VS","CDISC002",4,"DIABP","Diastolic Blood Pressure","STANDING","58","mmHg","58",58,"mmHg","","","","",4,"WEEK 2","TREATMENT","2012-11-28",14],
["CDISCPILOT01","VS","CDISC002",5,"DIABP","Diastolic Blood Pressure","STANDING","55","mmHg","55",55,"mmHg","","","","",5,"WEEK 4","TREATMENT","2012-12-11",27],
["CDISCPILOT01","VS","CDISC002",6,"DIABP","Diastolic Blood Pressure","STANDING","60","mmHg","60",60,"mmHg","","","","",7,"WEEK 6","TREATMENT","2012-12-25",41],
["CDISCPILOT01","VS","CDISC002",7,"DIABP","Diastolic Blood Pressure","SUPINE","59","mmHg","59",59,"mmHg","","","",1,8,"WEEK 8","TREATMENT","2013-01-08",55],
["CDISCPILOT01","VS","CDISC002",8,"DIABP","Diastolic Blood Pressure","STANDING","65","mmHg","65",65,"mmHg","","","",2,8,"WEEK 8","TREATMENT","2013-01-08",55],
["CDISCPILOT01","VS","CDISC002",9,"DIABP","Diastolic Blood Pressure","STANDING","68","mmHg","68",68,"mmHg","","","",3,8,"WEEK 8","TREATMENT","2013-01-08",55],
["CDISCPILOT01","VS","CDISC002",10,"HEIGHT","Height","","63.0","in","160.02",160.02,"cm","","","","",1,"SCREENING 1","SCREENING","2012-10-30",-16],
["CDISCPILOT01","VS","CDISC002",11,"PULSE","Pulse Rate","STANDING","55","beats/min","55",55,"beats/min","","","","",1,"SCREENING 1","SCREENING","2012-10-30",-16],
["CDISCPILOT01","VS","CDISC002",12,"PULSE","Pulse Rate","STANDING","66","beats/min","66",66,"beats/min","","","","",2,"SCREENING 2","SCREENING","2012-11-14",-1],
["CDISCPILOT01","VS","CDISC002",13,"PULSE","Pulse Rate","STANDING","57","beats/min","57",57,"beats/min","","","Y","",3,"BASELINE","SCREENING","2012-11-15",1],
["CDISCPILOT01","VS","CDISC002",14,"PULSE","Pulse Rate","STANDING","74","beats/min","74",74,"beats/min","","","","",4,"WEEK 2","TREATMENT","2012-11-28",14],
["CDISCPILOT01","VS","CDISC002",15,"PULSE","Pulse Rate","STANDING","66","beats/min","66",66,"beats/min","","","","",5,"WEEK 4","TREATMENT","2012-12-11",27],
["CDISCPILOT01","VS","CDISC002",16,"PULSE","Pulse Rate","STANDING","63","beats/min","63",63,"beats/min","","","","",7,"WEEK 6","TREATMENT","2012-12-25",41],
["CDISCPILOT01","VS","CDISC002",17,"PULSE","Pulse Rate","SUPINE","65","beats/min","65",65,"beats/min","","","",1,8,"WEEK 8","TREATMENT","2013-01-08",55],
["CDISCPILOT01","VS","CDISC002",18,"PULSE","Pulse Rate","STANDING","75","beats/min","75",75,"beats/min","","","",2,8,"WEEK 8","TREATMENT","2013-01-08",55],
["CDISCPILOT01","VS","CDISC002",19,"PULSE","Pulse Rate","STANDING","74","beats/min","74",74,"beats/min","","","",3,8,"WEEK 8","TREATMENT","2013-01-08",55],
["CDISCPILOT01","VS","CDISC002",20,"SYSBP","Systolic Blood Pressure","STANDING","144","mmHg","144",144,"mmHg","","","","",1,"SCREENING 1","SCREENING","2012-10-30",-16],
["CDISCPILOT01","VS","CDISC002",21,"SYSBP","Systolic Blood Pressure","STANDING","137","mmHg","137",137,"mmHg","","","","",2,"SCREENING 2","SCREENING","2012-11-14",-1],
["CDISCPILOT01","VS","CDISC002",22,"SYSBP","Systolic Blood Pressure","STANDING","135","mmHg","135",135,"mmHg","","","Y","",3,"BASELINE","SCREENING","2012-11-15",1],
["CDISCPILOT01","VS","CDISC002",23,"SYSBP","Systolic Blood Pressure","STANDING","113","mmHg","113",113,"mmHg","","","","",4,"WEEK 2","TREATMENT","2012-11-28",14],
["CDISCPILOT01","VS","CDISC002",24,"SYSBP","Systolic Blood Pressure","STANDING","115","mmHg","115",115,"mmHg","","","","",5,"WEEK 4","TREATMENT","2012-12-11",27],
["CDISCPILOT01","VS","CDISC002",25,"SYSBP","Systolic Blood Pressure","STANDING","123","mmHg","123",123,"mmHg","","","","",7,"WEEK 6","TREATMENT","2012-12-25",41],
["CDISCPILOT01","VS","CDISC002",26,"SYSBP","Systolic Blood Pressure","SUPINE","156","mmHg","156",156,"mmHg","","","",1,8,"WEEK 8","TREATMENT","2013-01-08",55],
["CDISCPILOT01","VS","CDISC002",27,"SYSBP","Systolic Blood Pressure","STANDING","114","mmHg","114",114,"mmHg","","","",2,8,"WEEK 8","TREATMENT","2013-01-08",55],
["CDISCPILOT01","VS","CDISC002",28,"SYSBP","Systolic Blood Pressure","STANDING","127","mmHg","127",127,"mmHg","","","",3,8,"WEEK 8","TREATMENT","2013-01-08",55],
["CDISCPILOT01","VS","CDISC002",29,"TEMP","Temperature","","99.6","F","37.56",37.56,"C","","ORAL CAVITY","","",1,"SCREENING 1","SCREENING","2012-10-30",-16],
["CDISCPILOT01","VS","CDISC002",30,"TEMP","Temperature","","98.7","F","37.06",37.06,"C","","ORAL CAVITY","","",2,"SCREENING 2","SCREENING","2012-11-14",-1],
["CDISCPILOT01","VS","CDISC002",31,"TEMP","Temperature","","97.8","F","36.56",36.56,"C","","ORAL CAVITY","Y","",3,"BASELINE","SCREENING","2012-11-15",1],
["CDISCPILOT01","VS","CDISC002",32,"TEMP","Temperature","","97.0","F","36.11",36.11,"C","","ORAL CAVITY","","",4,"WEEK 2","TREATMENT","2012-11-28",14],
["CDISCPILOT01","VS","CDISC002",33,"TEMP","Temperature","","97.8","F","36.56",36.56,"C","","ORAL CAVITY","","",5,"WEEK 4","TREATMENT","2012-12-11",27],
["CDISCPILOT01","VS","CDISC002",34,"TEMP","Temperature","","96.2","F","35.67",35.67,"C","","ORAL CAVITY","","",7,"WEEK 6","TREATMENT","2012-12-25",41],
["CDISCPILOT01","VS","CDISC002",35,"TEMP","Temperature","","97.2","F","36.22",36.22,"C","","ORAL CAVITY","","",8,"WEEK 8","TREATMENT","2013-01-08",55],
["CDISCPILOT01","VS","CDISC002",36,"WEIGHT","Weight","","101.0","LB","45.81",45.81,"kg","","","","",1,"SCREENING 1","SCREENING","2012-10-30",-16],
["CDISCPILOT01","VS","CDISC002",37,"WEIGHT","Weight","","100.0","LB","45.36",45.36,"kg","","","Y","",3,"BASELINE","SCREENING","2012-11-15",1],
["CDISCPILOT01","VS","CDISC002",38,"WEIGHT","Weight","","100.0","LB","45.36",45.36,"kg","","","","",4,"WEEK 2","TREATMENT","2012-11-28",14],
["CDISCPILOT01","VS","CDISC002",39,"WEIGHT","Weight","","101.0","LB","45.81",45.81,"kg","","","","",5,"WEEK 4","TREATMENT","2012-12-11",27],
["CDISCPILOT01","VS","CDISC002",40,"WEIGHT","Weight","","100.0","LB","45.36",45.36,"kg","","","","",7,"WEEK 6","TREATMENT","2012-12-25",41],
["CDISCPILOT01","VS","CDISC002",41,"WEIGHT","Weight","","95.0","LB","43.09",43.09,"kg","","","","",8,"WEEK 8","TREATMENT","2013-01-08",55],
["CDISCPILOT01","VS","CDISC003",1,"DIABP","Diastolic Blood Pressure","SUPINE","68","mmHg","68",68,"mmHg","","","",1,1,"SCREENING 1","SCREENING","2013-08-20",-9],
["CDISCPILOT01","VS","CDISC003",2,"DIABP","Diastolic Blood Pressure","STANDING","79","mmHg","79",79,"mmHg","","","",2,1,"SCREENING 1","SCREENING","2013-08-20",-9],
["CDISCPILOT01","VS","CDISC003",3,"DIABP","Diastolic Blood Pressure","STANDING","77","mmHg","77",77,"mmHg","","","",3,1,"SCREENING 1","SCREENING","2013-08-20",-9],
["CDISCPILOT01","VS","CDISC003",4,"DIABP","Diastolic Blood Pressure","SUPINE","68","mmHg","68",68,"mmHg","","","",1,2,"SCREENING 2","SCREENING","2013-08-27",-2],
["CDISCPILOT01","VS","CDISC003",5,"DIABP","Diastolic Blood Pressure","STANDING","75","mmHg","75",75,"mmHg","","","",2,2,"SCREENING 2","SCREENING","2013-08-27",-2],
["CDISCPILOT01","VS","CDISC003",6,"DIABP","Diastolic Blood Pressure","STANDING","76","mmHg","76",76,"mmHg","","","",3,2,"SCREENING 2","SCREENING","2013-08-27",-2],
["CDISCPILOT01","VS","CDISC003",7,"DIABP","Diastolic Blood Pressure","SUPINE","76","mmHg","76",76,"mmHg","","","",1,3,"BASELINE","SCREENING","2013-08-29",1],
["CDISCPILOT01","VS","CDISC003",8,"DIABP","Diastolic Blood Pressure","STANDING","87","mmHg","87",87,"mmHg","","","",2,3,"BASELINE","SCREENING","2013-08-29",1],
["CDISCPILOT01","VS","CDISC003",9,"DIABP","Diastolic Blood Pressure","STANDING","83","mmHg","83",83,"mmHg","","","Y",3,3,"BASELINE","SCREENING","2013-08-29",1],
["CDISCPILOT01","VS","CDISC003",10,"DIABP","Diastolic Blood Pressure","SUPINE","71","mmHg","71",71,"mmHg","","","",1,4,"WEEK 2","TREATMENT","2013-09-15",18],
["CDISCPILOT01","VS","CDISC003",11,"DIABP","Diastolic Blood Pressure","STANDING","79","mmHg","79",79,"mmHg","","","",2,4,"WEEK 2","TREATMENT","2013-09-15",18],
["CDISCPILOT01","VS","CDISC003",12,"DIABP","Diastolic Blood Pressure","STANDING","84","mmHg","84",84,"mmHg","","","",3,4,"WEEK 2","TREATMENT","2013-09-15",18],
["CDISCPILOT01","VS","CDISC003",13,"DIABP","Diastolic Blood Pressure","SUPINE","76","mmHg","76",76,"mmHg","","","",1,5,"WEEK 4","TREATMENT","2013-09-24",27],
["CDISCPILOT01","VS","CDISC003",14,"DIABP","Diastolic Blood Pressure","STANDING","80","mmHg","80",80,"mmHg","","","",2,5,"WEEK 4","TREATMENT","2013-09-24",27],
["CDISCPILOT01","VS","CDISC003",15,"DIABP","Diastolic Blood Pressure","STANDING","80","mmHg","80",80,"mmHg","","","",3,5,"WEEK 4","TREATMENT","2013-09-24",27],
["CDISCPILOT01","VS","CDISC003",16,"DIABP","Diastolic Blood Pressure","SUPINE","65","mmHg","65",65,"mmHg","","","",1,7,"WEEK 6","TREATMENT","2013-10-08",41],
["CDISCPILOT01","VS","CDISC003",17,"DIABP","Diastolic Blood Pressure","STANDING","70","mmHg","70",70,"mmHg","","","",2,7,"WEEK 6","TREATMENT","2013-10-08",41],
["CDISCPILOT01","VS","CDISC003",18,"DIABP","Diastolic Blood Pressure","STANDING","76","mmHg","76",76,"mmHg","","","",3,7,"WEEK 6","TREATMENT","2013-10-08",41],
["CDISCPILOT01","VS","CDISC003",19,"DIABP","Diastolic Blood Pressure","SUPINE","77","mmHg","77",77,"mmHg","","","",1,8,"WEEK 8","TREATMENT","2013-10-22",55],
["CDISCPILOT01","VS","CDISC003",20,"DIABP","Diastolic Blood Pressure","STANDING","84","mmHg","84",84,"mmHg","","","",2,8,"WEEK 8","TREATMENT","2013-10-22",55],
["CDISCPILOT01","VS","CDISC003",21,"DIABP","Diastolic Blood Pressure","STANDING","91","mmHg","91",91,"mmHg","","","",3,8,"WEEK 8","TREATMENT","2013-10-22",55],
["CDISCPILOT01","VS","CDISC003",22,"DIABP","Diastolic Blood Pressure","SUPINE","76","mmHg","76",76,"mmHg","","","",1,9,"WEEK 12","TREATMENT","2013-11-05",69],
["CDISCPILOT01","VS","CDISC003",23,"DIABP","Diastolic Blood Pressure","STANDING","81","mmHg","81",81,"mmHg","","","",2,9,"WEEK 12","TREATMENT","2013-11-05",69],
["CDISCPILOT01","VS","CDISC003",24,"DIABP","Diastolic Blood Pressure","STANDING","81","mmHg","81",81,"mmHg","","","",3,9,"WEEK 12","TREATMENT","2013-11-05",69],
["CDISCPILOT01","VS","CDISC003",25,"DIABP","Diastolic Blood Pressure","SUPINE","75","mmHg","75",75,"mmHg","","","",1,201,"EARLY DISCONTINUATION RETRIEVAL","TREATMENT","2014-02-13",169],
["CDISCPILOT01","VS","CDISC003",26,"DIABP","Diastolic Blood Pressure","STANDING","83","mmHg","83",83,"mmHg","","","",2,201,"EARLY DISCONTINUATION RETRIEVAL","TREATMENT","2014-02-13",169],
["CDISCPILOT01","VS","CDISC003",27,"DIABP","Diastolic Blood Pressure","STANDING","80","mmHg","80",80,"mmHg","","","",3,201,"EARLY DISCONTINUATION RETRIEVAL","TREATMENT","2014-02-13",169],
["CDISCPILOT01","VS","CDISC003",28,"HEIGHT","Height","","70.0","in","177.8",177.8,"cm","","","","",1,"SCREENING 1","SCREENING","2013-08-20",-9],
["CDISCPILOT01","VS","CDISC003",29,"PULSE","Pulse Rate","SUPINE","58","beats/min","58",58,"beats/min","","","",1,1,"SCREENING 1","SCREENING","2013-08-20",-9],
["CDISCPILOT01","VS","CDISC003",30,"PULSE","Pulse Rate","STANDING","68","beats/min","68",68,"beats/min","","","",2,1,"SCREENING 1","SCREENING","2013-08-20",-9],
["CDISCPILOT01","VS","CDISC003",31,"PULSE","Pulse Rate","STANDING","64","beats/min","64",64,"beats/min","","","",3,1,"SCREENING 1","SCREENING","2013-08-20",-9],
["CDISCPILOT01","VS","CDISC003",32,"PULSE","Pulse Rate","SUPINE","59","beats/min","59",59,"beats/min","","","",1,2,"SCREENING 2","SCREENING","2013-08-27",-2],
["CDISCPILOT01","VS","CDISC003",33,"PULSE","Pulse Rate","STANDING","65","beats/min","65",65,"beats/min","","","",2,2,"SCREENING 2","SCREENING","2013-08-27",-2],
["CDISCPILOT01","VS","CDISC003",34,"PULSE","Pulse Rate","STANDING","71","beats/min","71",71,"beats/min","","","",3,2,"SCREENING 2","SCREENING","2013-08-27",-2],
["CDISCPILOT01","VS","CDISC003",35,"PULSE","Pulse Rate","SUPINE","54","beats/min","54",54,"beats/min","","","",1,3,"BASELINE","SCREENING","2013-08-29",1],
["CDISCPILOT01","VS","CDISC003",36,"PULSE","Pulse Rate","STANDING","62","beats/min","62",62,"beats/min","","","",2,3,"BASELINE","SCREENING","2013-08-29",1],
["CDISCPILOT01","VS","CDISC003",37,"PULSE","Pulse Rate","STANDING","61","beats/min","61",61,"beats/min","","","Y",3,3,"BASELINE","SCREENING","2013-08-29",1],
["CDISCPILOT01","VS","CDISC003",38,"PULSE","Pulse Rate","SUPINE","72","beats/min","72",72,"beats/min","","","",1,4,"WEEK 2","TREATMENT","2013-09-15",18],
["CDISCPILOT01","VS","CDISC003",39,"PULSE","Pulse Rate","STANDING","80","beats/min","80",80,"beats/min","","","",2,4,"WEEK 2","TREATMENT","2013-09-15",18],
["CDISCPILOT01","VS","CDISC003",40,"PULSE","Pulse Rate","STANDING","82","beats/min","82",82,"beats/min","","","",3,4,"WEEK 2","TREATMENT","2013-09-15",18],
["CDISCPILOT01","VS","CDISC003",41,"PULSE","Pulse Rate","SUPINE","52","beats/min","52",52,"beats/min","","","",1,5,"WEEK 4","TREATMENT","2013-09-24",27],
["CDISCPILOT01","VS","CDISC003",42,"PULSE","Pulse Rate","STANDING","62","beats/min","62",62,"beats/min","","","",2,5,"WEEK 4","TREATMENT","2013-09-24",27],
["CDISCPILOT01","VS","CDISC003",43,"PULSE","Pulse Rate","STANDING","66","beats/min","66",66,"beats/min","","","",3,5,"WEEK 4","TREATMENT","2013-09-24",27],
["CDISCPILOT01","VS","CDISC003",44,"PULSE","Pulse Rate","SUPINE","79","beats/min","79",79,"beats/min","","","",1,7,"WEEK 6","TREATMENT","2013-10-08",41],
["CDISCPILOT01","VS","CDISC003",45,"PULSE","Pulse Rate","STANDING","91","beats/min","91",91,"beats/min","","","",2,7,"WEEK 6","TREATMENT","2013-10-08",41],
["CDISCPILOT01","VS","CDISC003",46,"PULSE","Pulse Rate","STANDING","86","beats/min","86",86,"beats/min","","","",3,7,"WEEK 6","TREATMENT","2013-10-08",41],
["CDISCPILOT01","VS","CDISC003",47,"PULSE","Pulse Rate","SUPINE","62","beats/min","62",62,"beats/min","","","",1,8,"WEEK 8","TREATMENT","2013-10-22",55],
["CDISCPILOT01","VS","CDISC003",48,"PULSE","Pulse Rate","STANDING","76","beats/min","76",76,"beats/min","","","",2,8,"WEEK 8","TREATMENT","2013-10-22",55],
["CDISCPILOT01","VS","CDISC003",49,"PULSE","Pulse Rate","STANDING","77","beats/min","77",77,"beats/min","","","",3,8,"WEEK 8","TREATMENT","2013-10-22",55],
["CDISCPILOT01","VS","CDISC003",50,"PULSE","Pulse Rate","SUPINE","53","beats/min","53",53,"beats/min","","","",1,9,"WEEK 12","TREATMENT","2013-11-05",69],
["CDISCPILOT01","VS","CDISC003",51,"PULSE","Pulse Rate","STANDING","55","beats/min","55",55,"beats/min","","","",2,9,"WEEK 12","TREATMENT","2013-11-05",69],
["CDISCPILOT01","VS","CDISC003",52,"PULSE","Pulse Rate","STANDING","56","beats/min","56",56,"beats/min","","","",3,9,"WEEK 12","TREATMENT","2013-11-05",69],
["CDISCPILOT01","VS","CDISC003",53,"PULSE","Pulse Rate","SUPINE","50","beats/min","50",50,"beats/min","","","",1,201,"EARLY DISCONTINUATION RETRIEVAL","TREATMENT","2014-02-13",169],
["CDISCPILOT01","VS","CDISC003",54,"PULSE","Pulse Rate","STANDING","57","beats/min","57",57,"beats/min","","","",2,201,"EARLY DISCONTINUATION RETRIEVAL","TREATMENT","2014-02-13",169],
["CDISCPILOT01","VS","CDISC003",55,"PULSE","Pulse Rate","STANDING","60","beats/min","60",60,"beats/min","","","",3,201,"EARLY DISCONTINUATION RETRIEVAL","TREATMENT","2014-02-13",169],
["CDISCPILOT01","VS","CDISC003",56,"SYSBP","Systolic Blood Pressure","SUPINE","115","mmHg","115",115,"mmHg","","","",1,1,"SCREENING 1","SCREENING","2013-08-20",-9],
["CDISCPILOT01","VS","CDISC003",57,"SYSBP","Systolic Blood Pressure","STANDING","122","mmHg","122",122,"mmHg","","","",2,1,"SCREENING 1","SCREENING","2013-08-20",-9],
["CDISCPILOT01","VS","CDISC003",58,"SYSBP","Systolic Blood Pressure","STANDING","123","mmHg","123",123,"mmHg","","","",3,1,"SCREENING 1","SCREENING","2013-08-20",-9],
["CDISCPILOT01","VS","CDISC003",59,"SYSBP","Systolic Blood Pressure","SUPINE","121","mmHg","121",121,"mmHg","","","",1,2,"SCREENING 2","SCREENING","2013-08-27",-2],
["CDISCPILOT01","VS","CDISC003",60,"SYSBP","Systolic Blood Pressure","STANDING","106","mmHg","106",106,"mmHg","","","",2,2,"SCREENING 2","SCREENING","2013-08-27",-2],
["CDISCPILOT01","VS","CDISC003",61,"SYSBP","Systolic Blood Pressure","STANDING","115","mmHg","115",115,"mmHg","","","",3,2,"SCREENING 2","SCREENING","2013-08-27",-2],
["CDISCPILOT01","VS","CDISC003",62,"SYSBP","Systolic Blood Pressure","SUPINE","131","mmHg","131",131,"mmHg","","","",1,3,"BASELINE","SCREENING","2013-08-29",1],
["CDISCPILOT01","VS","CDISC003",63,"SYSBP","Systolic Blood Pressure","STANDING","137","mmHg","137",137,"mmHg","","","",2,3,"BASELINE","SCREENING","2013-08-29",1],
["CDISCPILOT01","VS","CDISC003",64,"SYSBP","Systolic Blood Pressure","STANDING","136","mmHg","136",136,"mmHg","","","Y",3,3,"BASELINE","SCREENING","2013-08-29",1],
["CDISCPILOT01","VS","CDISC003",65,"SYSBP","Systolic Blood Pressure","SUPINE","114","mmHg","114",114,"mmHg","","","",1,4,"WEEK 2","TREATMENT","2013-09-15",18],
["CDISCPILOT01","VS","CDISC003",66,"SYSBP","Systolic Blood Pressure","STANDING","114","mmHg","114",114,"mmHg","","","",2,4,"WEEK 2","TREATMENT","2013-09-15",18],
["CDISCPILOT01","VS","CDISC003",67,"SYSBP","Systolic Blood Pressure","STANDING","123","mmHg","123",123,"mmHg","","","",3,4,"WEEK 2","TREATMENT","2013-09-15",18],
["CDISCPILOT01","VS","CDISC003",68,"SYSBP","Systolic Blood Pressure","SUPINE","123","mmHg","123",123,"mmHg","","","",1,5,"WEEK 4","TREATMENT","2013-09-24",27],
["CDISCPILOT01","VS","CDISC003",69,"SYSBP","Systolic Blood Pressure","STANDING","115","mmHg","115",115,"mmHg","","","",2,5,"WEEK 4","TREATMENT","2013-09-24",27],
["CDISCPILOT01","VS","CDISC003",70,"SYSBP","Systolic Blood Pressure","STANDING","131","mmHg","131",131,"mmHg","","","",3,5,"WEEK 4","TREATMENT","2013-09-24",27],
["CDISCPILOT01","VS","CDISC003",71,"SYSBP","Systolic Blood Pressure","SUPINE","108","mmHg","108",108,"mmHg","","","",1,7,"WEEK 6","TREATMENT","2013-10-08",41],
["CDISCPILOT01","VS","CDISC003",72,"SYSBP","Systolic Blood Pressure","STANDING","115","mmHg","115",115,"mmHg","","","",2,7,"WEEK 6","TREATMENT","2013-10-08",41],
["CDISCPILOT01","VS","CDISC003",73,"SYSBP","Systolic Blood Pressure","STANDING","123","mmHg","123",123,"mmHg","","","",3,7,"WEEK 6","TREATMENT","2013-10-08",41],
["CDISCPILOT01","VS","CDISC003",74,"SYSBP","Systolic Blood Pressure","SUPINE","115","mmHg","115",115,"mmHg","","","",1,8,"WEEK 8","TREATMENT","2013-10-22",55],
["CDISCPILOT01","VS","CDISC003",75,"SYSBP","Systolic Blood Pressure","STANDING","115","mmHg","115",115,"mmHg","","","",2,8,"WEEK 8","TREATMENT","2013-10-22",55],
["CDISCPILOT01","VS","CDISC003",76,"SYSBP","Systolic Blood Pressure","STANDING","114","mmHg","114",114,"mmHg","","","",3,8,"WEEK 8","TREATMENT","2013-10-22",55],
["CDISCPILOT01","VS","CDISC003",77,"SYSBP","Systolic Blood Pressure","SUPINE","115","mmHg","115",115,"mmHg","","","",1,9,"WEEK 12","TREATMENT","2013-11-05",69],
["CDISCPILOT01","VS","CDISC003",78,"SYSBP","Systolic Blood Pressure","STANDING","124","mmHg","124",124,"mmHg","","","",2,9,"WEEK 12","TREATMENT","2013-11-05",69],
["CDISCPILOT01","VS","CDISC003",79,"SYSBP","Systolic Blood Pressure","STANDING","131","mmHg","131",131,"mmHg","","","",3,9,"WEEK 12","TREATMENT","2013-11-05",69],
["CDISCPILOT01","VS","CDISC003",80,"SYSBP","Systolic Blood Pressure","SUPINE","122","mmHg","122",122,"mmHg","","","",1,201,"EARLY DISCONTINUATION RETRIEVAL","TREATMENT","2014-02-13",169],
["CDISCPILOT01","VS","CDISC003",81,"SYSBP","Systolic Blood Pressure","STANDING","117","mmHg","117",117,"mmHg","","","",2,201,"EARLY DISCONTINUATION RETRIEVAL","TREATMENT","2014-02-13",169],
["CDISCPILOT01","VS","CDISC003",82,"SYSBP","Systolic Blood Pressure","STANDING","131","mmHg","131",131,"mmHg","","","",3,201,"EARLY DISCONTINUATION RETRIEVAL","TREATMENT","2014-02-13",169],
["CDISCPILOT01","VS","CDISC003",83,"TEMP","Temperature","","97.7","F","36.5",36.5,"C","","ORAL CAVITY","","",1,"SCREENING 1","SCREENING","2013-08-20",-9],
["CDISCPILOT01","VS","CDISC003",84,"TEMP","Temperature","","98.9","F","37.17",37.17,"C","","ORAL CAVITY","","",2,"SCREENING 2","SCREENING","2013-08-27",-2],
["CDISCPILOT01","VS","CDISC003",85,"TEMP","Temperature","","96.3","F","35.72",35.72,"C","","ORAL CAVITY","Y","",3,"BASELINE","SCREENING","2013-08-29",1],
["CDISCPILOT01","VS","CDISC003",86,"TEMP","Temperature","","98.3","F","36.83",36.83,"C","","ORAL CAVITY","","",4,"WEEK 2","TREATMENT","2013-09-15",18],
["CDISCPILOT01","VS","CDISC003",87,"TEMP","Temperature","","97.1","F","36.17",36.17,"C","","ORAL CAVITY","","",5,"WEEK 4","TREATMENT","2013-09-24",27],
["CDISCPILOT01","VS","CDISC003",88,"TEMP","Temperature","","97.9","F","36.61",36.61,"C","","ORAL CAVITY","","",7,"WEEK 6","TREATMENT","2013-10-08",41],
["CDISCPILOT01","VS","CDISC003",89,"TEMP","Temperature","","98.1","F","36.72",36.72,"C","","ORAL CAVITY","","",8,"WEEK 8","TREATMENT","2013-10-22",55],
["CDISCPILOT01","VS","CDISC003",90,"TEMP","Temperature","","97.9","F","36.61",36.61,"C","","ORAL CAVITY","","",9,"WEEK 12","TREATMENT","2013-11-05",69],
["CDISCPILOT01","VS","CDISC003",91,"TEMP","Temperature","","97.4","F","36.33",36.33,"C","","ORAL CAVITY","","",201,"EARLY DISCONTINUATION RETRIEVAL","TREATMENT","2014-02-13",169],
["CDISCPILOT01","VS","CDISC003",92,"WEIGHT","Weight","","179.0","LB","81.19",81.19,"kg","","","","",1,"SCREENING 1","SCREENING","2013-08-20",-9],
["CDISCPILOT01","VS","CDISC003",93,"WEIGHT","Weight","","181.0","LB","82.1",82.1,"kg","","","Y","",3,"BASELINE","SCREENING","2013-08-29",1],
["CDISCPILOT01","VS","CDISC003",94,"WEIGHT","Weight","","179.0","LB","81.19",81.19,"kg","","","","",4,"WEEK 2","TREATMENT","2013-09-15",18],
["CDISCPILOT01","VS","CDISC003",95,"WEIGHT","Weight","","182.0","LB","82.56",82.56,"kg","","","","",5,"WEEK 4","TREATMENT","2013-09-24",27],
["CDISCPILOT01","VS","CDISC003",96,"WEIGHT","Weight","","178.0","LB","80.74",80.74,"kg","","","","",7,"WEEK 6","TREATMENT","2013-10-08",41],
["CDISCPILOT01","VS","CDISC003",97,"WEIGHT","Weight","","181.0","LB","82.1",82.1,"kg","","","","",8,"WEEK 8","TREATMENT","2013-10-22",55],
["CDISCPILOT01","VS","CDISC003",98,"WEIGHT","Weight","","181.0","LB","82.1",82.1,"kg","","","","",9,"WEEK 12","TREATMENT","2013-11-05",69],
["CDISCPILOT01","VS","CDISC004",1,"DIABP","Diastolic Blood Pressure","SUPINE","47","mmHg","47",47,"mmHg","","","",1,1,"SCREENING 1","SCREENING","2013-10-01",-7],
["CDISCPILOT01","VS","CDISC004",2,"DIABP","Diastolic Blood Pressure","STANDING","55","mmHg","55",55,"mmHg","","","",2,1,"SCREENING 1","SCREENING","2013-10-01",-7],
["CDISCPILOT01","VS","CDISC004",3,"DIABP","Diastolic Blood Pressure","STANDING","56","mmHg","56",56,"mmHg","","","",3,1,"SCREENING 1","SCREENING","2013-10-01",-7],
["CDISCPILOT01","VS","CDISC004",4,"DIABP","Diastolic Blood Pressure","SUPINE","56","mmHg","56",56,"mmHg","","","",1,2,"SCREENING 2","SCREENING","2013-10-06",-2],
["CDISCPILOT01","VS","CDISC004",5,"DIABP","Diastolic Blood Pressure","STANDING","56","mmHg","56",56,"mmHg","","","",2,2,"SCREENING 2","SCREENING","2013-10-06",-2],
["CDISCPILOT01","VS","CDISC004",6,"DIABP","Diastolic Blood Pressure","STANDING","57","mmHg","57",57,"mmHg","","","",3,2,"SCREENING 2","SCREENING","2013-10-06",-2],
["CDISCPILOT01","VS","CDISC004",7,"DIABP","Diastolic Blood Pressure","SUPINE","58","mmHg","58",58,"mmHg","","","",1,3,"BASELINE","SCREENING","2013-10-08",1],
["CDISCPILOT01","VS","CDISC004",8,"DIABP","Diastolic Blood Pressure","STANDING","52","mmHg","52",52,"mmHg","","","",2,3,"BASELINE","SCREENING","2013-10-08",1],
["CDISCPILOT01","VS","CDISC004",9,"DIABP","Diastolic Blood Pressure","STANDING","54","mmHg","54",54,"mmHg","","","Y",3,3,"BASELINE","SCREENING","2013-10-08",1],
["CDISCPILOT01","VS","CDISC004",10,"DIABP","Diastolic Blood Pressure","SUPINE","52","mmHg","52",52,"mmHg","","","",1,4,"WEEK 2","TREATMENT","2013-10-24",17],
["CDISCPILOT01","VS","CDISC004",11,"DIABP","Diastolic Blood Pressure","STANDING","56","mmHg","56",56,"mmHg","","","",2,4,"WEEK 2","TREATMENT","2013-10-24",17],
["CDISCPILOT01","VS","CDISC004",12,"DIABP","Diastolic Blood Pressure","STANDING","58","mmHg","58",58,"mmHg","","","",3,4,"WEEK 2","TREATMENT","2013-10-24",17],
["CDISCPILOT01","VS","CDISC004",13,"DIABP","Diastolic Blood Pressure","SUPINE","41","mmHg","41",41,"mmHg","","","",1,5,"WEEK 4","TREATMENT","2013-11-08",32],
["CDISCPILOT01","VS","CDISC004",14,"DIABP","Diastolic Blood Pressure","STANDING","39","mmHg","39",39,"mmHg","","","",2,5,"WEEK 4","TREATMENT","2013-11-08",32],
["CDISCPILOT01","VS","CDISC004",15,"DIABP","Diastolic Blood Pressure","STANDING","50","mmHg","50",50,"mmHg","","","",3,5,"WEEK 4","TREATMENT","2013-11-08",32],
["CDISCPILOT01","VS","CDISC004",16,"DIABP","Diastolic Blood Pressure","SUPINE","48","mmHg","48",48,"mmHg","","","",1,7,"WEEK 6","TREATMENT","2013-11-19",43],
["CDISCPILOT01","VS","CDISC004",17,"DIABP","Diastolic Blood Pressure","STANDING","52","mmHg","52",52,"mmHg","","","",2,7,"WEEK 6","TREATMENT","2013-11-19",43],
["CDISCPILOT01","VS","CDISC004",18,"DIABP","Diastolic Blood Pressure","STANDING","54","mmHg","54",54,"mmHg","","","",3,7,"WEEK 6","TREATMENT","2013-11-19",43],
["CDISCPILOT01","VS","CDISC004",19,"DIABP","Diastolic Blood Pressure","SUPINE","49","mmHg","49",49,"mmHg","","","",1,8,"WEEK 8","TREATMENT","2013-12-03",57],
["CDISCPILOT01","VS","CDISC004",20,"DIABP","Diastolic Blood Pressure","STANDING","52","mmHg","52",52,"mmHg","","","",2,8,"WEEK 8","TREATMENT","2013-12-03",57],
["CDISCPILOT01","VS","CDISC004",21,"DIABP","Diastolic Blood Pressure","STANDING","57","mmHg","57",57,"mmHg","","","",3,8,"WEEK 8","TREATMENT","2013-12-03",57],
["CDISCPILOT01","VS","CDISC004",22,"DIABP","Diastolic Blood Pressure","SUPINE","55","mmHg","55",55,"mmHg","","","",1,9,"WEEK 12","TREATMENT","2013-12-31",85],
["CDISCPILOT01","VS","CDISC004",23,"DIABP","Diastolic Blood Pressure","STANDING","49","mmHg","49",49,"mmHg","","","",2,9,"WEEK 12","TREATMENT","2013-12-31",85],
["CDISCPILOT01","VS","CDISC004",24,"DIABP","Diastolic Blood Pressure","STANDING","57","mmHg","57",57,"mmHg","","","",3,9,"WEEK 12","TREATMENT","2013-12-31",85],
["CDISCPILOT01","VS","CDISC004",25,"DIABP","Diastolic Blood Pressure","SUPINE","52","mmHg","52",52,"mmHg","","","",1,10,"WEEK 16","TREATMENT","2014-01-27",112],
["CDISCPILOT01","VS","CDISC004",26,"DIABP","Diastolic Blood Pressure","STANDING","49","mmHg","49",49,"mmHg","","","",2,10,"WEEK 16","TREATMENT","2014-01-27",112],
["CDISCPILOT01","VS","CDISC004",27,"DIABP","Diastolic Blood Pressure","STANDING","55","mmHg","55",55,"mmHg","","","",3,10,"WEEK 16","TREATMENT","2014-01-27",112],
["CDISCPILOT01","VS","CDISC004",28,"DIABP","Diastolic Blood Pressure","SUPINE","54","mmHg","54",54,"mmHg","","","",1,11,"WEEK 20","TREATMENT","2014-02-25",141],
["CDISCPILOT01","VS","CDISC004",29,"DIABP","Diastolic Blood Pressure","STANDING","48","mmHg","48",48,"mmHg","","","",2,11,"WEEK 20","TREATMENT","2014-02-25",141],
["CDISCPILOT01","VS","CDISC004",30,"DIABP","Diastolic Blood Pressure","STANDING","56","mmHg","56",56,"mmHg","","","",3,11,"WEEK 20","TREATMENT","2014-02-25",141],
["CDISCPILOT01","VS","CDISC004",31,"DIABP","Diastolic Blood Pressure","SUPINE","48","mmHg","48",48,"mmHg","","","",1,12,"WEEK 24","TREATMENT","2014-03-18",162],
["CDISCPILOT01","VS","CDISC004",32,"DIABP","Diastolic Blood Pressure","STANDING","56","mmHg","56",56,"mmHg","","","",2,12,"WEEK 24","TREATMENT","2014-03-18",162],
["CDISCPILOT01","VS","CDISC004",33,"DIABP","Diastolic Blood Pressure","STANDING","51","mmHg","51",51,"mmHg","","","",3,12,"WEEK 24","TREATMENT","2014-03-18",162],
["CDISCPILOT01","VS","CDISC004",34,"HEIGHT","Height","","68.5","in","173.99",173.99,"cm","","","","",1,"SCREENING 1","SCREENING","2013-10-01",-7],
["CDISCPILOT01","VS","CDISC004",35,"PULSE","Pulse Rate","SUPINE","62","beats/min","62",62,"beats/min","","","",1,1,"SCREENING 1","SCREENING","2013-10-01",-7],
["CDISCPILOT01","VS","CDISC004",36,"PULSE","Pulse Rate","STANDING","74","beats/min","74",74,"beats/min","","","",2,1,"SCREENING 1","SCREENING","2013-10-01",-7],
["CDISCPILOT01","VS","CDISC004",37,"PULSE","Pulse Rate","STANDING","80","beats/min","80",80,"beats/min","","","",3,1,"SCREENING 1","SCREENING","2013-10-01",-7],
["CDISCPILOT01","VS","CDISC004",38,"PULSE","Pulse Rate","SUPINE","61","beats/min","61",61,"beats/min","","","",1,2,"SCREENING 2","SCREENING","2013-10-06",-2],
["CDISCPILOT01","VS","CDISC004",39,"PULSE","Pulse Rate","STANDING","71","beats/min","71",71,"beats/min","","","",2,2,"SCREENING 2","SCREENING","2013-10-06",-2],
["CDISCPILOT01","VS","CDISC004",40,"PULSE","Pulse Rate","STANDING","65","beats/min","65",65,"beats/min","","","",3,2,"SCREENING 2","SCREENING","2013-10-06",-2],
["CDISCPILOT01","VS","CDISC004",41,"PULSE","Pulse Rate","SUPINE","61","beats/min","61",61,"beats/min","","","",1,3,"BASELINE","SCREENING","2013-10-08",1],
["CDISCPILOT01","VS","CDISC004",42,"PULSE","Pulse Rate","STANDING","68","beats/min","68",68,"beats/min","","","",2,3,"BASELINE","SCREENING","2013-10-08",1],
["CDISCPILOT01","VS","CDISC004",43,"PULSE","Pulse Rate","STANDING","67","beats/min","67",67,"beats/min","","","Y",3,3,"BASELINE","SCREENING","2013-10-08",1],
["CDISCPILOT01","VS","CDISC004",44,"PULSE","Pulse Rate","SUPINE","62","beats/min","62",62,"beats/min","","","",1,4,"WEEK 2","TREATMENT","2013-10-24",17],
["CDISCPILOT01","VS","CDISC004",45,"PULSE","Pulse Rate","STANDING","73","beats/min","73",73,"beats/min","","","",2,4,"WEEK 2","TREATMENT","2013-10-24",17],
["CDISCPILOT01","VS","CDISC004",46,"PULSE","Pulse Rate","STANDING","74","beats/min","74",74,"beats/min","","","",3,4,"WEEK 2","TREATMENT","2013-10-24",17],
["CDISCPILOT01","VS","CDISC004",47,"PULSE","Pulse Rate","SUPINE","66","beats/min","66",66,"beats/min","","","",1,5,"WEEK 4","TREATMENT","2013-11-08",32],
["CDISCPILOT01","VS","CDISC004",48,"PULSE","Pulse Rate","STANDING","87","beats/min","87",87,"beats/min","","","",2,5,"WEEK 4","TREATMENT","2013-11-08",32],
["CDISCPILOT01","VS","CDISC004",49,"PULSE","Pulse Rate","STANDING","86","beats/min","86",86,"beats/min","","","",3,5,"WEEK 4","TREATMENT","2013-11-08",32],
["CDISCPILOT01","VS","CDISC004",50,"PULSE","Pulse Rate","SUPINE","62","beats/min","62",62,"beats/min","","","",1,7,"WEEK 6","TREATMENT","2013-11-19",43],
["CDISCPILOT01","VS","CDISC004",51,"PULSE","Pulse Rate","STANDING","66","beats/min","66",66,"beats/min","","","",2,7,"WEEK 6","TREATMENT","2013-11-19",43],
["CDISCPILOT01","VS","CDISC004",52,"PULSE","Pulse Rate","STANDING","68","beats/min","68",68,"beats/min","","","",3,7,"WEEK 6","TREATMENT","2013-11-19",43],
["CDISCPILOT01","VS","CDISC004",53,"PULSE","Pulse Rate","SUPINE","59","beats/min","59",59,"beats/min","","","",1,8,"WEEK 8","TREATMENT","2013-12-03",57],
["CDISCPILOT01","VS","CDISC004",54,"PULSE","Pulse Rate","STANDING","79","beats/min","79",79,"beats/min","","","",2,8,"WEEK 8","TREATMENT","2013-12-03",57],
["CDISCPILOT01","VS","CDISC004",55,"PULSE","Pulse Rate","STANDING","83","beats/min","83",83,"beats/min","","","",3,8,"WEEK 8","TREATMENT","2013-12-03",57],
["CDISCPILOT01","VS","CDISC004",56,"PULSE","Pulse Rate","SUPINE","62","beats/min","62",62,"beats/min","","","",1,9,"WEEK 12","TREATMENT","2013-12-31",85],
["CDISCPILOT01","VS","CDISC004",57,"PULSE","Pulse Rate","STANDING","67","beats/min","67",67,"beats/min","","","",2,9,"WEEK 12","TREATMENT","2013-12-31",85],
["CDISCPILOT01","VS","CDISC004",58,"PULSE","Pulse Rate","STANDING","65","beats/min","65",65,"beats/min","","","",3,9,"WEEK 12","TREATMENT","2013-12-31",85],
["CDISCPILOT01","VS","CDISC004",59,"PULSE","Pulse Rate","SUPINE","66","beats/min","66",66,"beats/min","","","",1,10,"WEEK 16","TREATMENT","2014-01-27",112],
["CDISCPILOT01","VS","CDISC004",60,"PULSE","Pulse Rate","STANDING","79","beats/min","79",79,"beats/min","","","",2,10,"WEEK 16","TREATMENT","2014-01-27",112],
["CDISCPILOT01","VS","CDISC004",61,"PULSE","Pulse Rate","STANDING","83","beats/min","83",83,"beats/min","","","",3,10,"WEEK 16","TREATMENT","2014-01-27",112],
["CDISCPILOT01","VS","CDISC004",62,"PULSE","Pulse Rate","SUPINE","61","beats/min","61",61,"beats/min","","","",1,11,"WEEK 20","TREATMENT","2014-02-25",141],
["CDISCPILOT01","VS","CDISC004",63,"PULSE","Pulse Rate","STANDING","74","beats/min","74",74,"beats/min","","","",2,11,"WEEK 20","TREATMENT","2014-02-25",141],
["CDISCPILOT01","VS","CDISC004",64,"PULSE","Pulse Rate","STANDING","75","beats/min","75",75,"beats/min","","","",3,11,"WEEK 20","TREATMENT","2014-02-25",141],
["CDISCPILOT01","VS","CDISC004",65,"PULSE","Pulse Rate","SUPINE","64","beats/min","64",64,"beats/min","","","",1,12,"WEEK 24","TREATMENT","2014-03-18",162],
["CDISCPILOT01","VS","CDISC004",66,"PULSE","Pulse Rate","STANDING","82","beats/min","82",82,"beats/min","","","",2,12,"WEEK 24","TREATMENT","2014-03-18",162],
["CDISCPILOT01","VS","CDISC004",67,"PULSE","Pulse Rate","STANDING","80","beats/min","80",80,"beats/min","","","",3,12,"WEEK 24","TREATMENT","2014-03-18",162],
["CDISCPILOT01","VS","CDISC004",68,"SYSBP","Systolic Blood Pressure","SUPINE","112","mmHg","112",112,"mmHg","","","",1,1,"SCREENING 1","SCREENING","2013-10-01",-7],
["CDISCPILOT01","VS","CDISC004",69,"SYSBP","Systolic Blood Pressure","STANDING","110","mmHg","110",110,"mmHg","","","",2,1,"SCREENING 1","SCREENING","2013-10-01",-7],
["CDISCPILOT01","VS","CDISC004",70,"SYSBP","Systolic Blood Pressure","STANDING","119","mmHg","119",119,"mmHg","","","",3,1,"SCREENING 1","SCREENING","2013-10-01",-7],
["CDISCPILOT01","VS","CDISC004",71,"SYSBP","Systolic Blood Pressure","SUPINE","130","mmHg","130",130,"mmHg","","","",1,2,"SCREENING 2","SCREENING","2013-10-06",-2],
["CDISCPILOT01","VS","CDISC004",72,"SYSBP","Systolic Blood Pressure","STANDING","121","mmHg","121",121,"mmHg","","","",2,2,"SCREENING 2","SCREENING","2013-10-06",-2],
["CDISCPILOT01","VS","CDISC004",73,"SYSBP","Systolic Blood Pressure","STANDING","115","mmHg","115",115,"mmHg","","","",3,2,"SCREENING 2","SCREENING","2013-10-06",-2],
["CDISCPILOT01","VS","CDISC004",74,"SYSBP","Systolic Blood Pressure","SUPINE","126","mmHg","126",126,"mmHg","","","",1,3,"BASELINE","SCREENING","2013-10-08",1],
["CDISCPILOT01","VS","CDISC004",75,"SYSBP","Systolic Blood Pressure","STANDING","108","mmHg","108",108,"mmHg","","","",2,3,"BASELINE","SCREENING","2013-10-08",1],
["CDISCPILOT01","VS","CDISC004",76,"SYSBP","Systolic Blood Pressure","STANDING","116","mmHg","116",116,"mmHg","","","Y",3,3,"BASELINE","SCREENING","2013-10-08",1],
["CDISCPILOT01","VS","CDISC004",77,"SYSBP","Systolic Blood Pressure","SUPINE","116","mmHg","116",116,"mmHg","","","",1,4,"WEEK 2","TREATMENT","2013-10-24",17],
["CDISCPILOT01","VS","CDISC004",78,"SYSBP","Systolic Blood Pressure","STANDING","110","mmHg","110",110,"mmHg","","","",2,4,"WEEK 2","TREATMENT","2013-10-24",17],
["CDISCPILOT01","VS","CDISC004",79,"SYSBP","Systolic Blood Pressure","STANDING","118","mmHg","118",118,"mmHg","","","",3,4,"WEEK 2","TREATMENT","2013-10-24",17],
["CDISCPILOT01","VS","CDISC004",80,"SYSBP","Systolic Blood Pressure","SUPINE","113","mmHg","113",113,"mmHg","","","",1,5,"WEEK 4","TREATMENT","2013-11-08",32],
["CDISCPILOT01","VS","CDISC004",81,"SYSBP","Systolic Blood Pressure","STANDING","106","mmHg","106",106,"mmHg","","","",2,5,"WEEK 4","TREATMENT","2013-11-08",32],
["CDISCPILOT01","VS","CDISC004",82,"SYSBP","Systolic Blood Pressure","STANDING","123","mmHg","123",123,"mmHg","","","",3,5,"WEEK 4","TREATMENT","2013-11-08",32],
["CDISCPILOT01","VS","CDISC004",83,"SYSBP","Systolic Blood Pressure","SUPINE","129","mmHg","129",129,"mmHg","","","",1,7,"WEEK 6","TREATMENT","2013-11-19",43],
["CDISCPILOT01","VS","CDISC004",84,"SYSBP","Systolic Blood Pressure","STANDING","122","mmHg","122",122,"mmHg","","","",2,7,"WEEK 6","TREATMENT","2013-11-19",43],
["CDISCPILOT01","VS","CDISC004",85,"SYSBP","Systolic Blood Pressure","STANDING","115","mmHg","115",115,"mmHg","","","",3,7,"WEEK 6","TREATMENT","2013-11-19",43],
["CDISCPILOT01","VS","CDISC004",86,"SYSBP","Systolic Blood Pressure","SUPINE","115","mmHg","115",115,"mmHg","","","",1,8,"WEEK 8","TREATMENT","2013-12-03",57],
["CDISCPILOT01","VS","CDISC004",87,"SYSBP","Systolic Blood Pressure","STANDING","105","mmHg","105",105,"mmHg","","","",2,8,"WEEK 8","TREATMENT","2013-12-03",57],
["CDISCPILOT01","VS","CDISC004",88,"SYSBP","Systolic Blood Pressure","STANDING","108","mmHg","108",108,"mmHg","","","",3,8,"WEEK 8","TREATMENT","2013-12-03",57],
["CDISCPILOT01","VS","CDISC004",89,"SYSBP","Systolic Blood Pressure","SUPINE","121","mmHg","121",121,"mmHg","","","",1,9,"WEEK 12","TREATMENT","2013-12-31",85],
["CDISCPILOT01","VS","CDISC004",90,"SYSBP","Systolic Blood Pressure","STANDING","113","mmHg","113",113,"mmHg","","","",2,9,"WEEK 12","TREATMENT","2013-12-31",85],
["CDISCPILOT01","VS","CDISC004",91,"SYSBP","Systolic Blood Pressure","STANDING","121","mmHg","121",121,"mmHg","","","",3,9,"WEEK 12","TREATMENT","2013-12-31",85],
["CDISCPILOT01","VS","CDISC004",92,"SYSBP","Systolic Blood Pressure","SUPINE","120","mmHg","120",120,"mmHg","","","",1,10,"WEEK 16","TREATMENT","2014-01-27",112],
["CDISCPILOT01","VS","CDISC004",93,"SYSBP","Systolic Blood Pressure","STANDING","114","mmHg","114",114,"mmHg","","","",2,10,"WEEK 16","TREATMENT","2014-01-27",112],
["CDISCPILOT01","VS","CDISC004",94,"SYSBP","Systolic Blood Pressure","STANDING","123","mmHg","123",123,"mmHg","","","",3,10,"WEEK 16","TREATMENT","2014-01-27",112],
["CDISCPILOT01","VS","CDISC004",95,"SYSBP","Systolic Blood Pressure","SUPINE","113","mmHg","113",113,"mmHg","","","",1,11,"WEEK 20","TREATMENT","2014-02-25",141],
["CDISCPILOT01","VS","CDISC004",96,"SYSBP","Systolic Blood Pressure","STANDING","104","mmHg","104",104,"mmHg","","","",2,11,"WEEK 20","TREATMENT","2014-02-25",141],
["CDISCPILOT01","VS","CDISC004",97,"SYSBP","Systolic Blood Pressure","STANDING","122","mmHg","122",122,"mmHg","","","",3,11,"WEEK 20","TREATMENT","2014-02-25",141],
["CDISCPILOT01","VS","CDISC004",98,"SYSBP","Systolic Blood Pressure","SUPINE","122","mmHg","122",122,"mmHg","","","",1,12,"WEEK 24","TREATMENT","2014-03-18",162],
["CDISCPILOT01","VS","CDISC004",99,"SYSBP","Systolic Blood Pressure","STANDING","120","mmHg","120",120,"mmHg","","","",2,12,"WEEK 24","TREATMENT","2014-03-18",162],
["CDISCPILOT01","VS","CDISC004",100,"SYSBP","Systolic Blood Pressure","STANDING","113","mmHg","113",113,"mmHg","","","",3,12,"WEEK 24","TREATMENT","2014-03-18",162],
["CDISCPILOT01","VS","CDISC004",101,"TEMP","Temperature","","98.5","F","36.94",36.94,"C","","ORAL CAVITY","","",1,"SCREENING 1","SCREENING","2013-10-01",-7],
["CDISCPILOT01","VS","CDISC004",102,"TEMP","Temperature","","98.0","F","36.67",36.67,"C","","ORAL CAVITY","","",2,"SCREENING 2","SCREENING","2013-10-06",-2],
["CDISCPILOT01","VS","CDISC004",103,"TEMP","Temperature","","97.6","F","36.44",36.44,"C","","ORAL CAVITY","Y","",3,"BASELINE","SCREENING","2013-10-08",1],
["CDISCPILOT01","VS","CDISC004",104,"TEMP","Temperature","","98.8","F","37.11",37.11,"C","","ORAL CAVITY","","",4,"WEEK 2","TREATMENT","2013-10-24",17],
["CDISCPILOT01","VS","CDISC004",105,"TEMP","Temperature","","98.9","F","37.17",37.17,"C","","ORAL CAVITY","","",5,"WEEK 4","TREATMENT","2013-11-08",32],
["CDISCPILOT01","VS","CDISC004",106,"TEMP","Temperature","","97.2","F","36.22",36.22,"C","","ORAL CAVITY","","",7,"WEEK 6","TREATMENT","2013-11-19",43],
["CDISCPILOT01","VS","CDISC004",107,"TEMP","Temperature","","98.9","F","37.17",37.17,"C","","ORAL CAVITY","","",8,"WEEK 8","TREATMENT","2013-12-03",57],
["CDISCPILOT01","VS","CDISC004",108,"TEMP","Temperature","","98.4","F","36.89",36.89,"C","","ORAL CAVITY","","",9,"WEEK 12","TREATMENT","2013-12-31",85],
["CDISCPILOT01","VS","CDISC004",109,"TEMP","Temperature","","97.7","F","36.5",36.5,"C","","ORAL CAVITY","","",10,"WEEK 16","TREATMENT","2014-01-27",112],
["CDISCPILOT01","VS","CDISC004",110,"TEMP","Temperature","","98.2","F","36.78",36.78,"C","","ORAL CAVITY","","",11,"WEEK 20","TREATMENT","2014-02-25",141],
["CDISCPILOT01","VS","CDISC004",111,"TEMP","Temperature","","97.8","F","36.56",36.56,"C","","ORAL CAVITY","","",12,"WEEK 24","TREATMENT","2014-03-18",162],
["CDISCPILOT01","VS","CDISC004",112,"WEIGHT","Weight","","123.0","LB","55.79",55.79,"kg","","","","",1,"SCREENING 1","SCREENING","2013-10-01",-7],
["CDISCPILOT01","VS","CDISC004",113,"WEIGHT","Weight","","124.0","LB","56.25",56.25,"kg","","","Y","",3,"BASELINE","SCREENING","2013-10-08",1],
["CDISCPILOT01","VS","CDISC004",114,"WEIGHT","Weight","","124.0","LB","56.25",56.25,"kg","","","","",4,"WEEK 2","TREATMENT","2013-10-24",17],
["CDISCPILOT01","VS","CDISC004",115,"WEIGHT","Weight","","124.0","LB","56.25",56.25,"kg","","","","",5,"WEEK 4","TREATMENT","2013-11-08",32],
["CDISCPILOT01","VS","CDISC004",116,"WEIGHT","Weight","","125.0","LB","56.7",56.7,"kg","","","","",7,"WEEK 6","TREATMENT","2013-11-19",43],
["CDISCPILOT01","VS","CDISC004",117,"WEIGHT","Weight","","124.0","LB","56.25",56.25,"kg","","","","",8,"WEEK 8","TREATMENT","2013-12-03",57],
["CDISCPILOT01","VS","CDISC004",118,"WEIGHT","Weight","","124.0","LB","56.25",56.25,"kg","","","","",9,"WEEK 12","TREATMENT","2013-12-31",85],
["CDISCPILOT01","VS","CDISC004",119,"WEIGHT","Weight","","125.0","LB","56.7",56.7,"kg","","","","",10,"WEEK 16","TREATMENT","2014-01-27",112],
["CDISCPILOT01","VS","CDISC004",120,"WEIGHT","Weight","","126.0","LB","57.15",57.15,"kg","","","","",11,"WEEK 20","TREATMENT","2014-02-25",141],
["CDISCPILOT01","VS","CDISC004",121,"WEIGHT","Weight","","126.0","LB","57.15",57.15,"kg","","","","",12,"WEEK 24","TREATMENT","2014-03-18",162],
["CDISCPILOT01","VS","CDISC005",1,"DIABP","Diastolic Blood Pressure","SUPINE","72","mmHg","72",72,"mmHg","","","",1,1,"SCREENING 1","SCREENING","2013-01-22",-13],
["CDISCPILOT01","VS","CDISC005",2,"DIABP","Diastolic Blood Pressure","STANDING","66","mmHg","66",66,"mmHg","","","",2,1,"SCREENING 1","SCREENING","2013-01-22",-13],
["CDISCPILOT01","VS","CDISC005",3,"DIABP","Diastolic Blood Pressure","STANDING","66","mmHg","66",66,"mmHg","","","",3,1,"SCREENING 1","SCREENING","2013-01-22",-13],
["CDISCPILOT01","VS","CDISC005",4,"DIABP","Diastolic Blood Pressure","SUPINE","56","mmHg","56",56,"mmHg","","","",1,2,"SCREENING 2","SCREENING","2013-02-02",-2],
["CDISCPILOT01","VS","CDISC005",5,"DIABP","Diastolic Blood Pressure","STANDING","71","mmHg","71",71,"mmHg","","","",2,2,"SCREENING 2","SCREENING","2013-02-02",-2],
["CDISCPILOT01","VS","CDISC005",6,"DIABP","Diastolic Blood Pressure","STANDING","74","mmHg","74",74,"mmHg","","","",3,2,"SCREENING 2","SCREENING","2013-02-02",-2],
["CDISCPILOT01","VS","CDISC005",7,"DIABP","Diastolic Blood Pressure","SUPINE","63","mmHg","63",63,"mmHg","","","",1,3,"BASELINE","SCREENING","2013-02-04",1],
["CDISCPILOT01","VS","CDISC005",8,"DIABP","Diastolic Blood Pressure","STANDING","60","mmHg","60",60,"mmHg","","","",2,3,"BASELINE","SCREENING","2013-02-04",1],
["CDISCPILOT01","VS","CDISC005",9,"DIABP","Diastolic Blood Pressure","STANDING","65","mmHg","65",65,"mmHg","","","Y",3,3,"BASELINE","SCREENING","2013-02-04",1],
["CDISCPILOT01","VS","CDISC005",10,"DIABP","Diastolic Blood Pressure","SUPINE","66","mmHg","66",66,"mmHg","","","",1,4,"WEEK 2","TREATMENT","2013-02-19",16],
["CDISCPILOT01","VS","CDISC005",11,"DIABP","Diastolic Blood Pressure","STANDING","56","mmHg","56",56,"mmHg","","","",2,4,"WEEK 2","TREATMENT","2013-02-19",16],
["CDISCPILOT01","VS","CDISC005",12,"DIABP","Diastolic Blood Pressure","STANDING","66","mmHg","66",66,"mmHg","","","",3,4,"WEEK 2","TREATMENT","2013-02-19",16],
["CDISCPILOT01","VS","CDISC005",13,"DIABP","Diastolic Blood Pressure","SUPINE","54","mmHg","54",54,"mmHg","","","",1,5,"WEEK 4","TREATMENT","2013-03-12",37],
["CDISCPILOT01","VS","CDISC005",14,"DIABP","Diastolic Blood Pressure","STANDING","62","mmHg","62",62,"mmHg","","","",2,5,"WEEK 4","TREATMENT","2013-03-12",37],
["CDISCPILOT01","VS","CDISC005",15,"DIABP","Diastolic Blood Pressure","STANDING","64","mmHg","64",64,"mmHg","","","",3,5,"WEEK 4","TREATMENT","2013-03-12",37],
["CDISCPILOT01","VS","CDISC005",16,"DIABP","Diastolic Blood Pressure","SUPINE","64","mmHg","64",64,"mmHg","","","",1,7,"WEEK 6","TREATMENT","2013-03-19",44],
["CDISCPILOT01","VS","CDISC005",17,"DIABP","Diastolic Blood Pressure","STANDING","54","mmHg","54",54,"mmHg","","","",2,7,"WEEK 6","TREATMENT","2013-03-19",44],
["CDISCPILOT01","VS","CDISC005",18,"DIABP","Diastolic Blood Pressure","STANDING","60","mmHg","60",60,"mmHg","","","",3,7,"WEEK 6","TREATMENT","2013-03-19",44],
["CDISCPILOT01","VS","CDISC005",19,"DIABP","Diastolic Blood Pressure","SUPINE","63","mmHg","63",63,"mmHg","","","",1,8,"WEEK 8","TREATMENT","2013-04-02",58],
["CDISCPILOT01","VS","CDISC005",20,"DIABP","Diastolic Blood Pressure","STANDING","54","mmHg","54",54,"mmHg","","","",2,8,"WEEK 8","TREATMENT","2013-04-02",58],
["CDISCPILOT01","VS","CDISC005",21,"DIABP","Diastolic Blood Pressure","STANDING","61","mmHg","61",61,"mmHg","","","",3,8,"WEEK 8","TREATMENT","2013-04-02",58],
["CDISCPILOT01","VS","CDISC005",22,"DIABP","Diastolic Blood Pressure","SUPINE","56","mmHg","56",56,"mmHg","","","",1,9,"WEEK 12","TREATMENT","2013-04-30",86],
["CDISCPILOT01","VS","CDISC005",23,"DIABP","Diastolic Blood Pressure","STANDING","60","mmHg","60",60,"mmHg","","","",2,9,"WEEK 12","TREATMENT","2013-04-30",86],
["CDISCPILOT01","VS","CDISC005",24,"DIABP","Diastolic Blood Pressure","STANDING","60","mmHg","60",60,"mmHg","","","",3,9,"WEEK 12","TREATMENT","2013-04-30",86],
["CDISCPILOT01","VS","CDISC005",25,"DIABP","Diastolic Blood Pressure","SUPINE","62","mmHg","62",62,"mmHg","","","",1,10,"WEEK 16","TREATMENT","2013-05-30",116],
["CDISCPILOT01","VS","CDISC005",26,"DIABP","Diastolic Blood Pressure","STANDING","60","mmHg","60",60,"mmHg","","","",2,10,"WEEK 16","TREATMENT","2013-05-30",116],
["CDISCPILOT01","VS","CDISC005",27,"DIABP","Diastolic Blood Pressure","STANDING","64","mmHg","64",64,"mmHg","","","",3,10,"WEEK 16","TREATMENT","2013-05-30",116],
["CDISCPILOT01","VS","CDISC005",28,"DIABP","Diastolic Blood Pressure","SUPINE","58","mmHg","58",58,"mmHg","","","",1,11,"WEEK 20","TREATMENT","2013-06-25",142],
["CDISCPILOT01","VS","CDISC005",29,"DIABP","Diastolic Blood Pressure","STANDING","54","mmHg","54",54,"mmHg","","","",2,11,"WEEK 20","TREATMENT","2013-06-25",142],
["CDISCPILOT01","VS","CDISC005",30,"DIABP","Diastolic Blood Pressure","STANDING","66","mmHg","66",66,"mmHg","","","",3,11,"WEEK 20","TREATMENT","2013-06-25",142],
["CDISCPILOT01","VS","CDISC005",31,"DIABP","Diastolic Blood Pressure","SUPINE","68","mmHg","68",68,"mmHg","","","",1,12,"WEEK 24","TREATMENT","2013-07-30",177],
["CDISCPILOT01","VS","CDISC005",32,"DIABP","Diastolic Blood Pressure","STANDING","60","mmHg","60",60,"mmHg","","","",2,12,"WEEK 24","TREATMENT","2013-07-30",177],
["CDISCPILOT01","VS","CDISC005",33,"DIABP","Diastolic Blood Pressure","STANDING","62","mmHg","62",62,"mmHg","","","",3,12,"WEEK 24","TREATMENT","2013-07-30",177],
["CDISCPILOT01","VS","CDISC005",34,"DIABP","Diastolic Blood Pressure","SUPINE","62","mmHg","62",62,"mmHg","","","",1,13,"WEEK 26","TREATMENT","2013-08-06",184],
["CDISCPILOT01","VS","CDISC005",35,"DIABP","Diastolic Blood Pressure","STANDING","56","mmHg","56",56,"mmHg","","","",2,13,"WEEK 26","TREATMENT","2013-08-06",184],
["CDISCPILOT01","VS","CDISC005",36,"DIABP","Diastolic Blood Pressure","STANDING","59","mmHg","59",59,"mmHg","","","",3,13,"WEEK 26","TREATMENT","2013-08-06",184],
["CDISCPILOT01","VS","CDISC005",37,"HEIGHT","Height","","64.5","in","163.83",163.83,"cm","","","","",1,"SCREENING 1","SCREENING","2013-01-22",-13],
["CDISCPILOT01","VS","CDISC005",38,"PULSE","Pulse Rate","SUPINE","70","beats/min","70",70,"beats/min","","","",1,1,"SCREENING 1","SCREENING","2013-01-22",-13],
["CDISCPILOT01","VS","CDISC005",39,"PULSE","Pulse Rate","STANDING","77","beats/min","77",77,"beats/min","","","",2,1,"SCREENING 1","SCREENING","2013-01-22",-13],
["CDISCPILOT01","VS","CDISC005",40,"PULSE","Pulse Rate","STANDING","80","beats/min","80",80,"beats/min","","","",3,1,"SCREENING 1","SCREENING","2013-01-22",-13],
["CDISCPILOT01","VS","CDISC005",41,"PULSE","Pulse Rate","SUPINE","80","beats/min","80",80,"beats/min","","","",1,2,"SCREENING 2","SCREENING","2013-02-02",-2],
["CDISCPILOT01","VS","CDISC005",42,"PULSE","Pulse Rate","STANDING","89","beats/min","89",89,"beats/min","","","",2,2,"SCREENING 2","SCREENING","2013-02-02",-2],
["CDISCPILOT01","VS","CDISC005",43,"PULSE","Pulse Rate","STANDING","94","beats/min","94",94,"beats/min","","","",3,2,"SCREENING 2","SCREENING","2013-02-02",-2],
["CDISCPILOT01","VS","CDISC005",44,"PULSE","Pulse Rate","SUPINE","77","beats/min","77",77,"beats/min","","","",1,3,"BASELINE","SCREENING","2013-02-04",1],
["CDISCPILOT01","VS","CDISC005",45,"PULSE","Pulse Rate","STANDING","87","beats/min","87",87,"beats/min","","","",2,3,"BASELINE","SCREENING","2013-02-04",1],
["CDISCPILOT01","VS","CDISC005",46,"PULSE","Pulse Rate","STANDING","89","beats/min","89",89,"beats/min","","","Y",3,3,"BASELINE","SCREENING","2013-02-04",1],
["CDISCPILOT01","VS","CDISC005",47,"PULSE","Pulse Rate","SUPINE","84","beats/min","84",84,"beats/min","","","",1,4,"WEEK 2","TREATMENT","2013-02-19",16],
["CDISCPILOT01","VS","CDISC005",48,"PULSE","Pulse Rate","STANDING","88","beats/min","88",88,"beats/min","","","",2,4,"WEEK 2","TREATMENT","2013-02-19",16],
["CDISCPILOT01","VS","CDISC005",49,"PULSE","Pulse Rate","STANDING","88","beats/min","88",88,"beats/min","","","",3,4,"WEEK 2","TREATMENT","2013-02-19",16],
["CDISCPILOT01","VS","CDISC005",50,"PULSE","Pulse Rate","SUPINE","70","beats/min","70",70,"beats/min","","","",1,5,"WEEK 4","TREATMENT","2013-03-12",37],
["CDISCPILOT01","VS","CDISC005",51,"PULSE","Pulse Rate","STANDING","82","beats/min","82",82,"beats/min","","","",2,5,"WEEK 4","TREATMENT","2013-03-12",37],
["CDISCPILOT01","VS","CDISC005",52,"PULSE","Pulse Rate","STANDING","78","beats/min","78",78,"beats/min","","","",3,5,"WEEK 4","TREATMENT","2013-03-12",37],
["CDISCPILOT01","VS","CDISC005",53,"PULSE","Pulse Rate","SUPINE","80","beats/min","80",80,"beats/min","","","",1,7,"WEEK 6","TREATMENT","2013-03-19",44],
["CDISCPILOT01","VS","CDISC005",54,"PULSE","Pulse Rate","STANDING","88","beats/min","88",88,"beats/min","","","",2,7,"WEEK 6","TREATMENT","2013-03-19",44],
["CDISCPILOT01","VS","CDISC005",55,"PULSE","Pulse Rate","STANDING","86","beats/min","86",86,"beats/min","","","",3,7,"WEEK 6","TREATMENT","2013-03-19",44],
["CDISCPILOT01","VS","CDISC005",56,"PULSE","Pulse Rate","SUPINE","70","beats/min","70",70,"beats/min","","","",1,8,"WEEK 8","TREATMENT","2013-04-02",58],
["CDISCPILOT01","VS","CDISC005",57,"PULSE","Pulse Rate","STANDING","86","beats/min","86",86,"beats/min","","","",2,8,"WEEK 8","TREATMENT","2013-04-02",58],
["CDISCPILOT01","VS","CDISC005",58,"PULSE","Pulse Rate","STANDING","81","beats/min","81",81,"beats/min","","","",3,8,"WEEK 8","TREATMENT","2013-04-02",58],
["CDISCPILOT01","VS","CDISC005",59,"PULSE","Pulse Rate","SUPINE","63","beats/min","63",63,"beats/min","","","",1,9,"WEEK 12","TREATMENT","2013-04-30",86],
["CDISCPILOT01","VS","CDISC005",60,"PULSE","Pulse Rate","STANDING","81","beats/min","81",81,"beats/min","","","",2,9,"WEEK 12","TREATMENT","2013-04-30",86],
["CDISCPILOT01","VS","CDISC005",61,"PULSE","Pulse Rate","STANDING","76","beats/min","76",76,"beats/min","","","",3,9,"WEEK 12","TREATMENT","2013-04-30",86],
["CDISCPILOT01","VS","CDISC005",62,"PULSE","Pulse Rate","SUPINE","70","beats/min","70",70,"beats/min","","","",1,10,"WEEK 16","TREATMENT","2013-05-30",116],
["CDISCPILOT01","VS","CDISC005",63,"PULSE","Pulse Rate","STANDING","82","beats/min","82",82,"beats/min","","","",2,10,"WEEK 16","TREATMENT","2013-05-30",116],
["CDISCPILOT01","VS","CDISC005",64,"PULSE","Pulse Rate","STANDING","78","beats/min","78",78,"beats/min","","","",3,10,"WEEK 16","TREATMENT","2013-05-30",116],
["CDISCPILOT01","VS","CDISC005",65,"PULSE","Pulse Rate","SUPINE","73","beats/min","73",73,"beats/min","","","",1,11,"WEEK 20","TREATMENT","2013-06-25",142],
["CDISCPILOT01","VS","CDISC005",66,"PULSE","Pulse Rate","STANDING","86","beats/min","86",86,"beats/min","","","",2,11,"WEEK 20","TREATMENT","2013-06-25",142],
["CDISCPILOT01","VS","CDISC005",67,"PULSE","Pulse Rate","STANDING","85","beats/min","85",85,"beats/min","","","",3,11,"WEEK 20","TREATMENT","2013-06-25",142],
["CDISCPILOT01","VS","CDISC005",68,"PULSE","Pulse Rate","SUPINE","92","beats/min","92",92,"beats/min","","","",1,12,"WEEK 24","TREATMENT","2013-07-30",177],
["CDISCPILOT01","VS","CDISC005",69,"PULSE","Pulse Rate","STANDING","98","beats/min","98",98,"beats/min","","","",2,12,"WEEK 24","TREATMENT","2013-07-30",177],
["CDISCPILOT01","VS","CDISC005",70,"PULSE","Pulse Rate","STANDING","96","beats/min","96",96,"beats/min","","","",3,12,"WEEK 24","TREATMENT","2013-07-30",177],
["CDISCPILOT01","VS","CDISC005",71,"PULSE","Pulse Rate","SUPINE","79","beats/min","79",79,"beats/min","","","",1,13,"WEEK 26","TREATMENT","2013-08-06",184],
["CDISCPILOT01","VS","CDISC005",72,"PULSE","Pulse Rate","STANDING","86","beats/min","86",86,"beats/min","","","",2,13,"WEEK 26","TREATMENT","2013-08-06",184],
["CDISCPILOT01","VS","CDISC005",73,"PULSE","Pulse Rate","STANDING","88","beats/min","88",88,"beats/min","","","",3,13,"WEEK 26","TREATMENT","2013-08-06",184],
["CDISCPILOT01","VS","CDISC005",74,"SYSBP","Systolic Blood Pressure","SUPINE","146","mmHg","146",146,"mmHg","","","",1,1,"SCREENING 1","SCREENING","2013-01-22",-13],
["CDISCPILOT01","VS","CDISC005",75,"SYSBP","Systolic Blood Pressure","STANDING","146","mmHg","146",146,"mmHg","","","",2,1,"SCREENING 1","SCREENING","2013-01-22",-13],
["CDISCPILOT01","VS","CDISC005",76,"SYSBP","Systolic Blood Pressure","STANDING","138","mmHg","138",138,"mmHg","","","",3,1,"SCREENING 1","SCREENING","2013-01-22",-13],
["CDISCPILOT01","VS","CDISC005",77,"SYSBP","Systolic Blood Pressure","SUPINE","129","mmHg","129",129,"mmHg","","","",1,2,"SCREENING 2","SCREENING","2013-02-02",-2],
["CDISCPILOT01","VS","CDISC005",78,"SYSBP","Systolic Blood Pressure","STANDING","136","mmHg","136",136,"mmHg","","","",2,2,"SCREENING 2","SCREENING","2013-02-02",-2],
["CDISCPILOT01","VS","CDISC005",79,"SYSBP","Systolic Blood Pressure","STANDING","131","mmHg","131",131,"mmHg","","","",3,2,"SCREENING 2","SCREENING","2013-02-02",-2],
["CDISCPILOT01","VS","CDISC005",80,"SYSBP","Systolic Blood Pressure","SUPINE","137","mmHg","137",137,"mmHg","","","",1,3,"BASELINE","SCREENING","2013-02-04",1],
["CDISCPILOT01","VS","CDISC005",81,"SYSBP","Systolic Blood Pressure","STANDING","138","mmHg","138",138,"mmHg","","","",2,3,"BASELINE","SCREENING","2013-02-04",1],
["CDISCPILOT01","VS","CDISC005",82,"SYSBP","Systolic Blood Pressure","STANDING","131","mmHg","131",131,"mmHg","","","Y",3,3,"BASELINE","SCREENING","2013-02-04",1],
["CDISCPILOT01","VS","CDISC005",83,"SYSBP","Systolic Blood Pressure","SUPINE","138","mmHg","138",138,"mmHg","","","",1,4,"WEEK 2","TREATMENT","2013-02-19",16],
["CDISCPILOT01","VS","CDISC005",84,"SYSBP","Systolic Blood Pressure","STANDING","130","mmHg","130",130,"mmHg","","","",2,4,"WEEK 2","TREATMENT","2013-02-19",16],
["CDISCPILOT01","VS","CDISC005",85,"SYSBP","Systolic Blood Pressure","STANDING","138","mmHg","138",138,"mmHg","","","",3,4,"WEEK 2","TREATMENT","2013-02-19",16],
["CDISCPILOT01","VS","CDISC005",86,"SYSBP","Systolic Blood Pressure","SUPINE","132","mmHg","132",132,"mmHg","","","",1,5,"WEEK 4","TREATMENT","2013-03-12",37],
["CDISCPILOT01","VS","CDISC005",87,"SYSBP","Systolic Blood Pressure","STANDING","117","mmHg","117",117,"mmHg","","","",2,5,"WEEK 4","TREATMENT","2013-03-12",37],
["CDISCPILOT01","VS","CDISC005",88,"SYSBP","Systolic Blood Pressure","STANDING","138","mmHg","138",138,"mmHg","","","",3,5,"WEEK 4","TREATMENT","2013-03-12",37],
["CDISCPILOT01","VS","CDISC005",89,"SYSBP","Systolic Blood Pressure","SUPINE","129","mmHg","129",129,"mmHg","","","",1,7,"WEEK 6","TREATMENT","2013-03-19",44],
["CDISCPILOT01","VS","CDISC005",90,"SYSBP","Systolic Blood Pressure","STANDING","129","mmHg","129",129,"mmHg","","","",2,7,"WEEK 6","TREATMENT","2013-03-19",44],
["CDISCPILOT01","VS","CDISC005",91,"SYSBP","Systolic Blood Pressure","STANDING","129","mmHg","129",129,"mmHg","","","",3,7,"WEEK 6","TREATMENT","2013-03-19",44],
["CDISCPILOT01","VS","CDISC005",92,"SYSBP","Systolic Blood Pressure","SUPINE","144","mmHg","144",144,"mmHg","","","",1,8,"WEEK 8","TREATMENT","2013-04-02",58],
["CDISCPILOT01","VS","CDISC005",93,"SYSBP","Systolic Blood Pressure","STANDING","137","mmHg","137",137,"mmHg","","","",2,8,"WEEK 8","TREATMENT","2013-04-02",58],
["CDISCPILOT01","VS","CDISC005",94,"SYSBP","Systolic Blood Pressure","STANDING","138","mmHg","138",138,"mmHg","","","",3,8,"WEEK 8","TREATMENT","2013-04-02",58],
["CDISCPILOT01","VS","CDISC005",95,"SYSBP","Systolic Blood Pressure","SUPINE","114","mmHg","114",114,"mmHg","","","",1,9,"WEEK 12","TREATMENT","2013-04-30",86],
["CDISCPILOT01","VS","CDISC005",96,"SYSBP","Systolic Blood Pressure","STANDING","122","mmHg","122",122,"mmHg","","","",2,9,"WEEK 12","TREATMENT","2013-04-30",86],
["CDISCPILOT01","VS","CDISC005",97,"SYSBP","Systolic Blood Pressure","STANDING","122","mmHg","122",122,"mmHg","","","",3,9,"WEEK 12","TREATMENT","2013-04-30",86],
["CDISCPILOT01","VS","CDISC005",98,"SYSBP","Systolic Blood Pressure","SUPINE","138","mmHg","138",138,"mmHg","","","",1,10,"WEEK 16","TREATMENT","2013-05-30",116],
["CDISCPILOT01","VS","CDISC005",99,"SYSBP","Systolic Blood Pressure","STANDING","130","mmHg","130",130,"mmHg","","","",2,10,"WEEK 16","TREATMENT","2013-05-30",116],
["CDISCPILOT01","VS","CDISC005",100,"SYSBP","Systolic Blood Pressure","STANDING","140","mmHg","140",140,"mmHg","","","",3,10,"WEEK 16","TREATMENT","2013-05-30",116],
["CDISCPILOT01","VS","CDISC005",101,"SYSBP","Systolic Blood Pressure","SUPINE","131","mmHg","131",131,"mmHg","","","",1,11,"WEEK 20","TREATMENT","2013-06-25",142],
["CDISCPILOT01","VS","CDISC005",102,"SYSBP","Systolic Blood Pressure","STANDING","139","mmHg","139",139,"mmHg","","","",2,11,"WEEK 20","TREATMENT","2013-06-25",142],
["CDISCPILOT01","VS","CDISC005",103,"SYSBP","Systolic Blood Pressure","STANDING","132","mmHg","132",132,"mmHg","","","",3,11,"WEEK 20","TREATMENT","2013-06-25",142],
["CDISCPILOT01","VS","CDISC005",104,"SYSBP","Systolic Blood Pressure","SUPINE","142","mmHg","142",142,"mmHg","","","",1,12,"WEEK 24","TREATMENT","2013-07-30",177],
["CDISCPILOT01","VS","CDISC005",105,"SYSBP","Systolic Blood Pressure","STANDING","128","mmHg","128",128,"mmHg","","","",2,12,"WEEK 24","TREATMENT","2013-07-30",177],
["CDISCPILOT01","VS","CDISC005",106,"SYSBP","Systolic Blood Pressure","STANDING","132","mmHg","132",132,"mmHg","","","",3,12,"WEEK 24","TREATMENT","2013-07-30",177],
["CDISCPILOT01","VS","CDISC005",107,"SYSBP","Systolic Blood Pressure","SUPINE","130","mmHg","130",130,"mmHg","","","",1,13,"WEEK 26","TREATMENT","2013-08-06",184],
["CDISCPILOT01","VS","CDISC005",108,"SYSBP","Systolic Blood Pressure","STANDING","115","mmHg","115",115,"mmHg","","","",2,13,"WEEK 26","TREATMENT","2013-08-06",184],
["CDISCPILOT01","VS","CDISC005",109,"SYSBP","Systolic Blood Pressure","STANDING","123","mmHg","123",123,"mmHg","","","",3,13,"WEEK 26","TREATMENT","2013-08-06",184],
["CDISCPILOT01","VS","CDISC005",110,"TEMP","Temperature","","97.3","F","36.28",36.28,"C","","ORAL CAVITY","","",1,"SCREENING 1","SCREENING","2013-01-22",-13],
["CDISCPILOT01","VS","CDISC005",111,"TEMP","Temperature","","98.2","F","36.78",36.78,"C","","ORAL CAVITY","","",2,"SCREENING 2","SCREENING","2013-02-02",-2],
["CDISCPILOT01","VS","CDISC005",112,"TEMP","Temperature","","97.7","F","36.5",36.5,"C","","ORAL CAVITY","","",3,"BASELINE","SCREENING","2013-02-04",1],
["CDISCPILOT01","VS","CDISC005",113,"TEMP","Temperature","","98.2","F","36.78",36.78,"C","","ORAL CAVITY","","",4,"WEEK 2","TREATMENT","2013-02-19",16],
["CDISCPILOT01","VS","CDISC005",114,"TEMP","Temperature","","98.0","F","36.67",36.67,"C","","ORAL CAVITY","","",5,"WEEK 4","TREATMENT","2013-03-12",37],
["CDISCPILOT01","VS","CDISC005",115,"TEMP","Temperature","","98.2","F","36.78",36.78,"C","","ORAL CAVITY","","",7,"WEEK 6","TREATMENT","2013-03-19",44],
["CDISCPILOT01","VS","CDISC005",116,"TEMP","Temperature","","97.5","F","36.39",36.39,"C","","ORAL CAVITY","","",8,"WEEK 8","TREATMENT","2013-04-02",58],
["CDISCPILOT01","VS","CDISC005",117,"TEMP","Temperature","","98.5","F","36.94",36.94,"C","","ORAL CAVITY","","",9,"WEEK 12","TREATMENT","2013-04-30",86],
["CDISCPILOT01","VS","CDISC005",118,"TEMP","Temperature","","97.5","F","36.39",36.39,"C","","ORAL CAVITY","","",10,"WEEK 16","TREATMENT","2013-05-30",116],
["CDISCPILOT01","VS","CDISC005",119,"TEMP","Temperature","","98.0","F","36.67",36.67,"C","","ORAL CAVITY","","",11,"WEEK 20","TREATMENT","2013-06-25",142],
["CDISCPILOT01","VS","CDISC005",120,"TEMP","Temperature","","97.6","F","36.44",36.44,"C","","ORAL CAVITY","","",12,"WEEK 24","TREATMENT","2013-07-30",177],
["CDISCPILOT01","VS","CDISC005",121,"TEMP","Temperature","","97.5","F","36.39",36.39,"C","","ORAL CAVITY","","",13,"WEEK 26","TREATMENT","2013-08-06",184],
["CDISCPILOT01","VS","CDISC005",122,"WEIGHT","Weight","","187.0","LB","84.82",84.82,"kg","","","","",1,"SCREENING 1","SCREENING","2013-01-22",-13],
["CDISCPILOT01","VS","CDISC005",123,"WEIGHT","Weight","","187.0","LB","84.82",84.82,"kg","","","","",3,"BASELINE","SCREENING","2013-02-04",1],
["CDISCPILOT01","VS","CDISC005",124,"WEIGHT","Weight","","190.0","LB","86.18",86.18,"kg","","","","",4,"WEEK 2","TREATMENT","2013-02-19",16],
["CDISCPILOT01","VS","CDISC005",125,"WEIGHT","Weight","","188.0","LB","85.28",85.28,"kg","","","","",5,"WEEK 4","TREATMENT","2013-03-12",37],
["CDISCPILOT01","VS","CDISC005",126,"WEIGHT","Weight","","188.0","LB","85.28",85.28,"kg","","","","",7,"WEEK 6","TREATMENT","2013-03-19",44],
["CDISCPILOT01","VS","CDISC005",127,"WEIGHT","Weight","","188.0","LB","85.28",85.28,"kg","","","","",8,"WEEK 8","TREATMENT","2013-04-02",58],
["CDISCPILOT01","VS","CDISC005",128,"WEIGHT","Weight","","186.0","LB","84.37",84.37,"kg","","","","",9,"WEEK 12","TREATMENT","2013-04-30",86],
["CDISCPILOT01","VS","CDISC005",129,"WEIGHT","Weight","","187.0","LB","84.82",84.82,"kg","","","","",10,"WEEK 16","TREATMENT","2013-05-30",116],
["CDISCPILOT01","VS","CDISC005",130,"WEIGHT","Weight","","186.0","LB","84.37",84.37,"kg","","","","",11,"WEEK 20","TREATMENT","2013-06-25",142],
["CDISCPILOT01","VS","CDISC005",131,"WEIGHT","Weight","","183.0","LB","83.01",83.01,"kg","","","","",12,"WEEK 24","TREATMENT","2013-07-30",177],
["CDISCPILOT01","VS","CDISC005",132,"WEIGHT","Weight","","183.0","LB","83.01",83.01,"kg","","","","",13,"WEEK 26","TREATMENT","2013-08-06",184],
["CDISCPILOT01","VS","CDISC006",1,"DIABP","Diastolic Blood Pressure","SUPINE","88","mmHg","88",88,"mmHg","","","",1,1,"SCREENING 1","SCREENING","2013-02-25",-22],
["CDISCPILOT01","VS","CDISC006",2,"DIABP","Diastolic Blood Pressure","STANDING","90","mmHg","90",90,"mmHg","","","",2,1,"SCREENING 1","SCREENING","2013-02-25",-22],
["CDISCPILOT01","VS","CDISC006",3,"DIABP","Diastolic Blood Pressure","STANDING","90","mmHg","90",90,"mmHg","","","",3,1,"SCREENING 1","SCREENING","2013-02-25",-22],
["CDISCPILOT01","VS","CDISC006",4,"DIABP","Diastolic Blood Pressure","SUPINE","66","mmHg","66",66,"mmHg","","","",1,2,"SCREENING 2","SCREENING","2013-03-17",-2],
["CDISCPILOT01","VS","CDISC006",5,"DIABP","Diastolic Blood Pressure","STANDING","88","mmHg","88",88,"mmHg","","","",2,2,"SCREENING 2","SCREENING","2013-03-17",-2],
["CDISCPILOT01","VS","CDISC006",6,"DIABP","Diastolic Blood Pressure","STANDING","70","mmHg","70",70,"mmHg","","","",3,2,"SCREENING 2","SCREENING","2013-03-17",-2],
["CDISCPILOT01","VS","CDISC006",7,"DIABP","Diastolic Blood Pressure","SUPINE","72","mmHg","72",72,"mmHg","","","",1,3,"BASELINE","SCREENING","2013-03-19",1],
["CDISCPILOT01","VS","CDISC006",8,"DIABP","Diastolic Blood Pressure","STANDING","80","mmHg","80",80,"mmHg","","","",2,3,"BASELINE","SCREENING","2013-03-19",1],
["CDISCPILOT01","VS","CDISC006",9,"DIABP","Diastolic Blood Pressure","STANDING","76","mmHg","76",76,"mmHg","","","Y",3,3,"BASELINE","SCREENING","2013-03-19",1],
["CDISCPILOT01","VS","CDISC006",10,"DIABP","Diastolic Blood Pressure","SUPINE","70","mmHg","70",70,"mmHg","","","",1,4,"WEEK 2","TREATMENT","2013-04-02",15],
["CDISCPILOT01","VS","CDISC006",11,"DIABP","Diastolic Blood Pressure","STANDING","86","mmHg","86",86,"mmHg","","","",2,4,"WEEK 2","TREATMENT","2013-04-02",15],
["CDISCPILOT01","VS","CDISC006",12,"DIABP","Diastolic Blood Pressure","STANDING","81","mmHg","81",81,"mmHg","","","",3,4,"WEEK 2","TREATMENT","2013-04-02",15],
["CDISCPILOT01","VS","CDISC006",13,"DIABP","Diastolic Blood Pressure","SUPINE","69","mmHg","69",69,"mmHg","","","",1,5,"WEEK 4","TREATMENT","2013-04-16",29],
["CDISCPILOT01","VS","CDISC006",14,"DIABP","Diastolic Blood Pressure","STANDING","78","mmHg","78",78,"mmHg","","","",2,5,"WEEK 4","TREATMENT","2013-04-16",29],
["CDISCPILOT01","VS","CDISC006",15,"DIABP","Diastolic Blood Pressure","STANDING","84","mmHg","84",84,"mmHg","","","",3,5,"WEEK 4","TREATMENT","2013-04-16",29],
["CDISCPILOT01","VS","CDISC006",16,"DIABP","Diastolic Blood Pressure","SUPINE","78","mmHg","78",78,"mmHg","","","",1,7,"WEEK 6","TREATMENT","2013-04-30",43],
["CDISCPILOT01","VS","CDISC006",17,"DIABP","Diastolic Blood Pressure","STANDING","78","mmHg","78",78,"mmHg","","","",2,7,"WEEK 6","TREATMENT","2013-04-30",43],
["CDISCPILOT01","VS","CDISC006",18,"DIABP","Diastolic Blood Pressure","STANDING","75","mmHg","75",75,"mmHg","","","",3,7,"WEEK 6","TREATMENT","2013-04-30",43],
["CDISCPILOT01","VS","CDISC006",19,"HEIGHT","Height","","58.5","in","148.59",148.59,"cm","","","","",1,"SCREENING 1","SCREENING","2013-02-25",-22],
["CDISCPILOT01","VS","CDISC006",20,"PULSE","Pulse Rate","SUPINE","78","beats/min","78",78,"beats/min","","","",1,1,"SCREENING 1","SCREENING","2013-02-25",-22],
["CDISCPILOT01","VS","CDISC006",21,"PULSE","Pulse Rate","STANDING","80","beats/min","80",80,"beats/min","","","",2,1,"SCREENING 1","SCREENING","2013-02-25",-22],
["CDISCPILOT01","VS","CDISC006",22,"PULSE","Pulse Rate","STANDING","82","beats/min","82",82,"beats/min","","","",3,1,"SCREENING 1","SCREENING","2013-02-25",-22],
["CDISCPILOT01","VS","CDISC006",23,"PULSE","Pulse Rate","SUPINE","76","beats/min","76",76,"beats/min","","","",1,2,"SCREENING 2","SCREENING","2013-03-17",-2],
["CDISCPILOT01","VS","CDISC006",24,"PULSE","Pulse Rate","STANDING","70","beats/min","70",70,"beats/min","","","",2,2,"SCREENING 2","SCREENING","2013-03-17",-2],
["CDISCPILOT01","VS","CDISC006",25,"PULSE","Pulse Rate","STANDING","76","beats/min","76",76,"beats/min","","","",3,2,"SCREENING 2","SCREENING","2013-03-17",-2],
["CDISCPILOT01","VS","CDISC006",26,"PULSE","Pulse Rate","SUPINE","68","beats/min","68",68,"beats/min","","","",1,3,"BASELINE","SCREENING","2013-03-19",1],
["CDISCPILOT01","VS","CDISC006",27,"PULSE","Pulse Rate","STANDING","75","beats/min","75",75,"beats/min","","","",2,3,"BASELINE","SCREENING","2013-03-19",1],
["CDISCPILOT01","VS","CDISC006",28,"PULSE","Pulse Rate","STANDING","72","beats/min","72",72,"beats/min","","","Y",3,3,"BASELINE","SCREENING","2013-03-19",1],
["CDISCPILOT01","VS","CDISC006",29,"PULSE","Pulse Rate","SUPINE","74","beats/min","74",74,"beats/min","","","",1,4,"WEEK 2","TREATMENT","2013-04-02",15],
["CDISCPILOT01","VS","CDISC006",30,"PULSE","Pulse Rate","STANDING","76","beats/min","76",76,"beats/min","","","",2,4,"WEEK 2","TREATMENT","2013-04-02",15],
["CDISCPILOT01","VS","CDISC006",31,"PULSE","Pulse Rate","STANDING","76","beats/min","76",76,"beats/min","","","",3,4,"WEEK 2","TREATMENT","2013-04-02",15],
["CDISCPILOT01","VS","CDISC006",32,"PULSE","Pulse Rate","SUPINE","77","beats/min","77",77,"beats/min","","","",1,5,"WEEK 4","TREATMENT","2013-04-16",29],
["CDISCPILOT01","VS","CDISC006",33,"PULSE","Pulse Rate","STANDING","85","beats/min","85",85,"beats/min","","","",2,5,"WEEK 4","TREATMENT","2013-04-16",29],
["CDISCPILOT01","VS","CDISC006",34,"PULSE","Pulse Rate","STANDING","88","beats/min","88",88,"beats/min","","","",3,5,"WEEK 4","TREATMENT","2013-04-16",29],
["CDISCPILOT01","VS","CDISC006",35,"PULSE","Pulse Rate","SUPINE","73","beats/min","73",73,"beats/min","","","",1,7,"WEEK 6","TREATMENT","2013-04-30",43],
["CDISCPILOT01","VS","CDISC006",36,"PULSE","Pulse Rate","STANDING","80","beats/min","80",80,"beats/min","","","",2,7,"WEEK 6","TREATMENT","2013-04-30",43],
["CDISCPILOT01","VS","CDISC006",37,"PULSE","Pulse Rate","STANDING","76","beats/min","76",76,"beats/min","","","",3,7,"WEEK 6","TREATMENT","2013-04-30",43],
["CDISCPILOT01","VS","CDISC006",38,"SYSBP","Systolic Blood Pressure","SUPINE","158","mmHg","158",158,"mmHg","","","",1,1,"SCREENING 1","SCREENING","2013-02-25",-22],
["CDISCPILOT01","VS","CDISC006",39,"SYSBP","Systolic Blood Pressure","STANDING","160","mmHg","160",160,"mmHg","","","",2,1,"SCREENING 1","SCREENING","2013-02-25",-22],
["CDISCPILOT01","VS","CDISC006",40,"SYSBP","Systolic Blood Pressure","STANDING","152","mmHg","152",152,"mmHg","","","",3,1,"SCREENING 1","SCREENING","2013-02-25",-22],
["CDISCPILOT01","VS","CDISC006",41,"SYSBP","Systolic Blood Pressure","SUPINE","186","mmHg","186",186,"mmHg","","","",1,2,"SCREENING 2","SCREENING","2013-03-17",-2],
["CDISCPILOT01","VS","CDISC006",42,"SYSBP","Systolic Blood Pressure","STANDING","181","mmHg","181",181,"mmHg","","","",2,2,"SCREENING 2","SCREENING","2013-03-17",-2],
["CDISCPILOT01","VS","CDISC006",43,"SYSBP","Systolic Blood Pressure","STANDING","158","mmHg","158",158,"mmHg","","","",3,2,"SCREENING 2","SCREENING","2013-03-17",-2],
["CDISCPILOT01","VS","CDISC006",44,"SYSBP","Systolic Blood Pressure","SUPINE","178","mmHg","178",178,"mmHg","","","",1,3,"BASELINE","SCREENING","2013-03-19",1],
["CDISCPILOT01","VS","CDISC006",45,"SYSBP","Systolic Blood Pressure","STANDING","186","mmHg","186",186,"mmHg","","","",2,3,"BASELINE","SCREENING","2013-03-19",1],
["CDISCPILOT01","VS","CDISC006",46,"SYSBP","Systolic Blood Pressure","STANDING","180","mmHg","180",180,"mmHg","","","Y",3,3,"BASELINE","SCREENING","2013-03-19",1],
["CDISCPILOT01","VS","CDISC006",47,"SYSBP","Systolic Blood Pressure","SUPINE","168","mmHg","168",168,"mmHg","","","",1,4,"WEEK 2","TREATMENT","2013-04-02",15],
["CDISCPILOT01","VS","CDISC006",48,"SYSBP","Systolic Blood Pressure","STANDING","178","mmHg","178",178,"mmHg","","","",2,4,"WEEK 2","TREATMENT","2013-04-02",15],
["CDISCPILOT01","VS","CDISC006",49,"SYSBP","Systolic Blood Pressure","STANDING","174","mmHg","174",174,"mmHg","","","",3,4,"WEEK 2","TREATMENT","2013-04-02",15],
["CDISCPILOT01","VS","CDISC006",50,"SYSBP","Systolic Blood Pressure","SUPINE","172","mmHg","172",172,"mmHg","","","",1,5,"WEEK 4","TREATMENT","2013-04-16",29],
["CDISCPILOT01","VS","CDISC006",51,"SYSBP","Systolic Blood Pressure","STANDING","164","mmHg","164",164,"mmHg","","","",2,5,"WEEK 4","TREATMENT","2013-04-16",29],
["CDISCPILOT01","VS","CDISC006",52,"SYSBP","Systolic Blood Pressure","STANDING","178","mmHg","178",178,"mmHg","","","",3,5,"WEEK 4","TREATMENT","2013-04-16",29],
["CDISCPILOT01","VS","CDISC006",53,"SYSBP","Systolic Blood Pressure","SUPINE","160","mmHg","160",160,"mmHg","","","",1,7,"WEEK 6","TREATMENT","2013-04-30",43],
["CDISCPILOT01","VS","CDISC006",54,"SYSBP","Systolic Blood Pressure","STANDING","178","mmHg","178",178,"mmHg","","","",2,7,"WEEK 6","TREATMENT","2013-04-30",43],
["CDISCPILOT01","VS","CDISC006",55,"SYSBP","Systolic Blood Pressure","STANDING","170","mmHg","170",170,"mmHg","","","",3,7,"WEEK 6","TREATMENT","2013-04-30",43],
["CDISCPILOT01","VS","CDISC006",56,"TEMP","Temperature","","96.8","F","36",36,"C","","ORAL CAVITY","","",1,"SCREENING 1","SCREENING","2013-02-25",-22],
["CDISCPILOT01","VS","CDISC006",57,"TEMP","Temperature","","98.6","F","37",37,"C","","ORAL CAVITY","","",2,"SCREENING 2","SCREENING","2013-03-17",-2],
["CDISCPILOT01","VS","CDISC006",58,"TEMP","Temperature","","98.5","F","36.94",36.94,"C","","ORAL CAVITY","","",3,"BASELINE","SCREENING","2013-03-19",1],
["CDISCPILOT01","VS","CDISC006",59,"TEMP","Temperature","","98.5","F","36.94",36.94,"C","","ORAL CAVITY","","",4,"WEEK 2","TREATMENT","2013-04-02",15],
["CDISCPILOT01","VS","CDISC006",60,"TEMP","Temperature","","97.6","F","36.44",36.44,"C","","ORAL CAVITY","","",5,"WEEK 4","TREATMENT","2013-04-16",29],
["CDISCPILOT01","VS","CDISC006",61,"TEMP","Temperature","","98.2","F","36.78",36.78,"C","","ORAL CAVITY","","",7,"WEEK 6","TREATMENT","2013-04-30",43],
["CDISCPILOT01","VS","CDISC006",62,"WEIGHT","Weight","","125.0","LB","56.7",56.7,"kg","","","","",1,"SCREENING 1","SCREENING","2013-02-25",-22],
["CDISCPILOT01","VS","CDISC006",63,"WEIGHT","Weight","","125.0","LB","56.7",56.7,"kg","","","","",3,"BASELINE","SCREENING","2013-03-19",1],
["CDISCPILOT01","VS","CDISC006",64,"WEIGHT","Weight","","125.0","LB","56.7",56.7,"kg","","","","",4,"WEEK 2","TREATMENT","2013-04-02",15],
["CDISCPILOT01","VS","CDISC006",65,"WEIGHT","Weight","","126.0","LB","57.15",57.15,"kg","","","","",5,"WEEK 4","TREATMENT","2013-04-16",29],
["CDISCPILOT01","VS","CDISC006",66,"WEIGHT","Weight","","126.0","LB","57.15",57.15,"kg","","","","",7,"WEEK 6","TREATMENT","2013-04-30",43],
["CDISCPILOT01","VS","CDISC007",1,"DIABP","Diastolic Blood Pressure","STANDING","92","mmHg","92",92,"mmHg","","","","",1,"SCREENING 1","SCREENING","2012-12-31",-5],
["CDISCPILOT01","VS","CDISC007",2,"DIABP","Diastolic Blood Pressure","SUPINE","83","mmHg","83",83,"mmHg","","","",1,2,"SCREENING 2","SCREENING","2013-01-03",-2],
["CDISCPILOT01","VS","CDISC007",3,"DIABP","Diastolic Blood Pressure","STANDING","78","mmHg","78",78,"mmHg","","","",2,2,"SCREENING 2","SCREENING","2013-01-03",-2],
["CDISCPILOT01","VS","CDISC007",4,"DIABP","Diastolic Blood Pressure","STANDING","77","mmHg","77",77,"mmHg","","","",3,2,"SCREENING 2","SCREENING","2013-01-03",-2],
["CDISCPILOT01","VS","CDISC007",5,"DIABP","Diastolic Blood Pressure","SUPINE","89","mmHg","89",89,"mmHg","","","",1,3,"BASELINE","SCREENING","2013-01-05",1],
["CDISCPILOT01","VS","CDISC007",6,"DIABP","Diastolic Blood Pressure","STANDING","84","mmHg","84",84,"mmHg","","","",2,3,"BASELINE","SCREENING","2013-01-05",1],
["CDISCPILOT01","VS","CDISC007",7,"DIABP","Diastolic Blood Pressure","STANDING","76","mmHg","76",76,"mmHg","","","Y",3,3,"BASELINE","SCREENING","2013-01-05",1],
["CDISCPILOT01","VS","CDISC007",8,"DIABP","Diastolic Blood Pressure","SUPINE","88","mmHg","88",88,"mmHg","","","",1,4,"WEEK 2","TREATMENT","2013-01-18",14],
["CDISCPILOT01","VS","CDISC007",9,"DIABP","Diastolic Blood Pressure","STANDING","81","mmHg","81",81,"mmHg","","","",2,4,"WEEK 2","TREATMENT","2013-01-18",14],
["CDISCPILOT01","VS","CDISC007",10,"DIABP","Diastolic Blood Pressure","STANDING","82","mmHg","82",82,"mmHg","","","",3,4,"WEEK 2","TREATMENT","2013-01-18",14],
["CDISCPILOT01","VS","CDISC007",11,"DIABP","Diastolic Blood Pressure","SUPINE","87","mmHg","87",87,"mmHg","","","",1,5,"WEEK 4","TREATMENT","2013-01-31",27],
["CDISCPILOT01","VS","CDISC007",12,"DIABP","Diastolic Blood Pressure","STANDING","79","mmHg","79",79,"mmHg","","","",2,5,"WEEK 4","TREATMENT","2013-01-31",27],
["CDISCPILOT01","VS","CDISC007",13,"DIABP","Diastolic Blood Pressure","STANDING","84","mmHg","84",84,"mmHg","","","",3,5,"WEEK 4","TREATMENT","2013-01-31",27],
["CDISCPILOT01","VS","CDISC007",14,"DIABP","Diastolic Blood Pressure","SUPINE","82","mmHg","82",82,"mmHg","","","",1,7,"WEEK 6","TREATMENT","2013-02-13",40],
["CDISCPILOT01","VS","CDISC007",15,"DIABP","Diastolic Blood Pressure","STANDING","84","mmHg","84",84,"mmHg","","","",2,7,"WEEK 6","TREATMENT","2013-02-13",40],
["CDISCPILOT01","VS","CDISC007",16,"DIABP","Diastolic Blood Pressure","STANDING","85","mmHg","85",85,"mmHg","","","",3,7,"WEEK 6","TREATMENT","2013-02-13",40],
["CDISCPILOT01","VS","CDISC007",17,"DIABP","Diastolic Blood Pressure","SUPINE","84","mmHg","84",84,"mmHg","","","",1,201,"EARLY DISCONTINUATION RETRIEVAL","TREATMENT","2013-06-20",167],
["CDISCPILOT01","VS","CDISC007",18,"DIABP","Diastolic Blood Pressure","STANDING","70","mmHg","70",70,"mmHg","","","",2,201,"EARLY DISCONTINUATION RETRIEVAL","TREATMENT","2013-06-20",167],
["CDISCPILOT01","VS","CDISC007",19,"DIABP","Diastolic Blood Pressure","STANDING","74","mmHg","74",74,"mmHg","","","",3,201,"EARLY DISCONTINUATION RETRIEVAL","TREATMENT","2013-06-20",167],
["CDISCPILOT01","VS","CDISC007",20,"HEIGHT","Height","STANDING","67.5","in","171.45",171.45,"cm","","","","",1,"SCREENING 1","SCREENING","2012-12-31",-5],
["CDISCPILOT01","VS","CDISC007",21,"PULSE","Pulse Rate","STANDING","56","beats/min","56",56,"beats/min","","","","",1,"SCREENING 1","SCREENING","2012-12-31",-5],
["CDISCPILOT01","VS","CDISC007",22,"PULSE","Pulse Rate","SUPINE","65","beats/min","65",65,"beats/min","","","",1,2,"SCREENING 2","SCREENING","2013-01-03",-2],
["CDISCPILOT01","VS","CDISC007",23,"PULSE","Pulse Rate","STANDING","65","beats/min","65",65,"beats/min","","","",2,2,"SCREENING 2","SCREENING","2013-01-03",-2],
["CDISCPILOT01","VS","CDISC007",24,"PULSE","Pulse Rate","STANDING","65","beats/min","65",65,"beats/min","","","",3,2,"SCREENING 2","SCREENING","2013-01-03",-2],
["CDISCPILOT01","VS","CDISC007",25,"PULSE","Pulse Rate","SUPINE","64","beats/min","64",64,"beats/min","","","",1,3,"BASELINE","SCREENING","2013-01-05",1],
["CDISCPILOT01","VS","CDISC007",26,"PULSE","Pulse Rate","STANDING","72","beats/min","72",72,"beats/min","","","",2,3,"BASELINE","SCREENING","2013-01-05",1],
["CDISCPILOT01","VS","CDISC007",27,"PULSE","Pulse Rate","STANDING","68","beats/min","68",68,"beats/min","","","Y",3,3,"BASELINE","SCREENING","2013-01-05",1],
["CDISCPILOT01","VS","CDISC007",28,"PULSE","Pulse Rate","SUPINE","65","beats/min","65",65,"beats/min","","","",1,4,"WEEK 2","TREATMENT","2013-01-18",14],
["CDISCPILOT01","VS","CDISC007",29,"PULSE","Pulse Rate","STANDING","64","beats/min","64",64,"beats/min","","","",2,4,"WEEK 2","TREATMENT","2013-01-18",14],
["CDISCPILOT01","VS","CDISC007",30,"PULSE","Pulse Rate","STANDING","64","beats/min","64",64,"beats/min","","","",3,4,"WEEK 2","TREATMENT","2013-01-18",14],
["CDISCPILOT01","VS","CDISC007",31,"PULSE","Pulse Rate","SUPINE","62","beats/min","62",62,"beats/min","","","",1,5,"WEEK 4","TREATMENT","2013-01-31",27],
["CDISCPILOT01","VS","CDISC007",32,"PULSE","Pulse Rate","STANDING","65","beats/min","65",65,"beats/min","","","",2,5,"WEEK 4","TREATMENT","2013-01-31",27],
["CDISCPILOT01","VS","CDISC007",33,"PULSE","Pulse Rate","STANDING","62","beats/min","62",62,"beats/min","","","",3,5,"WEEK 4","TREATMENT","2013-01-31",27],
["CDISCPILOT01","VS","CDISC007",34,"PULSE","Pulse Rate","SUPINE","60","beats/min","60",60,"beats/min","","","",1,7,"WEEK 6","TREATMENT","2013-02-13",40],
["CDISCPILOT01","VS","CDISC007",35,"PULSE","Pulse Rate","STANDING","65","beats/min","65",65,"beats/min","","","",2,7,"WEEK 6","TREATMENT","2013-02-13",40],
["CDISCPILOT01","VS","CDISC007",36,"PULSE","Pulse Rate","STANDING","65","beats/min","65",65,"beats/min","","","",3,7,"WEEK 6","TREATMENT","2013-02-13",40],
["CDISCPILOT01","VS","CDISC007",37,"PULSE","Pulse Rate","SUPINE","66","beats/min","66",66,"beats/min","","","",1,201,"EARLY DISCONTINUATION RETRIEVAL","TREATMENT","2013-06-20",167],
["CDISCPILOT01","VS","CDISC007",38,"PULSE","Pulse Rate","STANDING","73","beats/min","73",73,"beats/min","","","",2,201,"EARLY DISCONTINUATION RETRIEVAL","TREATMENT","2013-06-20",167],
["CDISCPILOT01","VS","CDISC007",39,"PULSE","Pulse Rate","STANDING","68","beats/min","68",68,"beats/min","","","",3,201,"EARLY DISCONTINUATION RETRIEVAL","TREATMENT","2013-06-20",167],
["CDISCPILOT01","VS","CDISC007",40,"SYSBP","Systolic Blood Pressure","STANDING","139","mmHg","139",139,"mmHg","","","","",1,"SCREENING 1","SCREENING","2012-12-31",-5],
["CDISCPILOT01","VS","CDISC007",41,"SYSBP","Systolic Blood Pressure","SUPINE","137","mmHg","137",137,"mmHg","","","",1,2,"SCREENING 2","SCREENING","2013-01-03",-2],
["CDISCPILOT01","VS","CDISC007",42,"SYSBP","Systolic Blood Pressure","STANDING","117","mmHg","117",117,"mmHg","","","",2,2,"SCREENING 2","SCREENING","2013-01-03",-2],
["CDISCPILOT01","VS","CDISC007",43,"SYSBP","Systolic Blood Pressure","STANDING","131","mmHg","131",131,"mmHg","","","",3,2,"SCREENING 2","SCREENING","2013-01-03",-2],
["CDISCPILOT01","VS","CDISC007",44,"SYSBP","Systolic Blood Pressure","SUPINE","159","mmHg","159",159,"mmHg","","","",1,3,"BASELINE","SCREENING","2013-01-05",1],
["CDISCPILOT01","VS","CDISC007",45,"SYSBP","Systolic Blood Pressure","STANDING","138","mmHg","138",138,"mmHg","","","",2,3,"BASELINE","SCREENING","2013-01-05",1],
["CDISCPILOT01","VS","CDISC007",46,"SYSBP","Systolic Blood Pressure","STANDING","138","mmHg","138",138,"mmHg","","","Y",3,3,"BASELINE","SCREENING","2013-01-05",1],
["CDISCPILOT01","VS","CDISC007",47,"SYSBP","Systolic Blood Pressure","SUPINE","138","mmHg","138",138,"mmHg","","","",1,4,"WEEK 2","TREATMENT","2013-01-18",14],
["CDISCPILOT01","VS","CDISC007",48,"SYSBP","Systolic Blood Pressure","STANDING","131","mmHg","131",131,"mmHg","","","",2,4,"WEEK 2","TREATMENT","2013-01-18",14],
["CDISCPILOT01","VS","CDISC007",49,"SYSBP","Systolic Blood Pressure","STANDING","139","mmHg","139",139,"mmHg","","","",3,4,"WEEK 2","TREATMENT","2013-01-18",14],
["CDISCPILOT01","VS","CDISC007",50,"SYSBP","Systolic Blood Pressure","SUPINE","138","mmHg","138",138,"mmHg","","","",1,5,"WEEK 4","TREATMENT","2013-01-31",27],
["CDISCPILOT01","VS","CDISC007",51,"SYSBP","Systolic Blood Pressure","STANDING","121","mmHg","121",121,"mmHg","","","",2,5,"WEEK 4","TREATMENT","2013-01-31",27],
["CDISCPILOT01","VS","CDISC007",52,"SYSBP","Systolic Blood Pressure","STANDING","137","mmHg","137",137,"mmHg","","","",3,5,"WEEK 4","TREATMENT","2013-01-31",27],
["CDISCPILOT01","VS","CDISC007",53,"SYSBP","Systolic Blood Pressure","SUPINE","128","mmHg","128",128,"mmHg","","","",1,7,"WEEK 6","TREATMENT","2013-02-13",40],
["CDISCPILOT01","VS","CDISC007",54,"SYSBP","Systolic Blood Pressure","STANDING","122","mmHg","122",122,"mmHg","","","",2,7,"WEEK 6","TREATMENT","2013-02-13",40],
["CDISCPILOT01","VS","CDISC007",55,"SYSBP","Systolic Blood Pressure","STANDING","130","mmHg","130",130,"mmHg","","","",3,7,"WEEK 6","TREATMENT","2013-02-13",40],
["CDISCPILOT01","VS","CDISC007",56,"SYSBP","Systolic Blood Pressure","SUPINE","129","mmHg","129",129,"mmHg","","","",1,201,"EARLY DISCONTINUATION RETRIEVAL","TREATMENT","2013-06-20",167],
["CDISCPILOT01","VS","CDISC007",57,"SYSBP","Systolic Blood Pressure","STANDING","115","mmHg","115",115,"mmHg","","","",2,201,"EARLY DISCONTINUATION RETRIEVAL","TREATMENT","2013-06-20",167],
["CDISCPILOT01","VS","CDISC007",58,"SYSBP","Systolic Blood Pressure","STANDING","116","mmHg","116",116,"mmHg","","","",3,201,"EARLY DISCONTINUATION RETRIEVAL","TREATMENT","2013-06-20",167],
["CDISCPILOT01","VS","CDISC007",59,"TEMP","Temperature","","97.9","F","36.61",36.61,"C","","ORAL CAVITY","","",1,"SCREENING 1","SCREENING","2012-12-31",-5],
["CDISCPILOT01","VS","CDISC007",60,"TEMP","Temperature","","98.8","F","37.11",37.11,"C","","ORAL CAVITY","","",2,"SCREENING 2","SCREENING","2013-01-03",-2],
["CDISCPILOT01","VS","CDISC007",61,"TEMP","Temperature","","98.5","F","36.94",36.94,"C","","ORAL CAVITY","","",3,"BASELINE","SCREENING","2013-01-05",1],
["CDISCPILOT01","VS","CDISC007",62,"TEMP","Temperature","","98.4","F","36.89",36.89,"C","","ORAL CAVITY","","",4,"WEEK 2","TREATMENT","2013-01-18",14],
["CDISCPILOT01","VS","CDISC007",63,"TEMP","Temperature","","98.1","F","36.72",36.72,"C","","ORAL CAVITY","","",5,"WEEK 4","TREATMENT","2013-01-31",27],
["CDISCPILOT01","VS","CDISC007",64,"TEMP","Temperature","","98.1","F","36.72",36.72,"C","","ORAL CAVITY","","",7,"WEEK 6","TREATMENT","2013-02-13",40],
["CDISCPILOT01","VS","CDISC007",65,"TEMP","Temperature","","97.2","F","36.22",36.22,"C","","ORAL CAVITY","","",201,"EARLY DISCONTINUATION RETRIEVAL","TREATMENT","2013-06-20",167],
["CDISCPILOT01","VS","CDISC007",66,"WEIGHT","Weight","","230.0","LB","104.33",104.33,"kg","","","","",1,"SCREENING 1","SCREENING","2012-12-31",-5],
["CDISCPILOT01","VS","CDISC007",67,"WEIGHT","Weight","","224.0","LB","101.61",101.61,"kg","","","","",3,"BASELINE","SCREENING","2013-01-05",1],
["CDISCPILOT01","VS","CDISC007",68,"WEIGHT","Weight","","230.0","LB","104.33",104.33,"kg","","","","",4,"WEEK 2","TREATMENT","2013-01-18",14],
["CDISCPILOT01","VS","CDISC007",69,"WEIGHT","Weight","","227.0","LB","102.97",102.97,"kg","","","","",5,"WEEK 4","TREATMENT","2013-01-31",27],
["CDISCPILOT01","VS","CDISC007",70,"WEIGHT","Weight","","225.0","LB","102.06",102.06,"kg","","","","",7,"WEEK 6","TREATMENT","2013-02-13",40],
["CDISCPILOT01","VS","CDISC008",1,"DIABP","Diastolic Blood Pressure","SUPINE","76","mmHg","76",76,"mmHg","","","",1,1,"SCREENING 1","SCREENING","2014-05-01",-10],
["CDISCPILOT01","VS","CDISC008",2,"DIABP","Diastolic Blood Pressure","STANDING","70","mmHg","70",70,"mmHg","","","",2,1,"SCREENING 1","SCREENING","2014-05-01",-10],
["CDISCPILOT01","VS","CDISC008",3,"DIABP","Diastolic Blood Pressure","STANDING","72","mmHg","72",72,"mmHg","","","",3,1,"SCREENING 1","SCREENING","2014-05-01",-10],
["CDISCPILOT01","VS","CDISC008",4,"DIABP","Diastolic Blood Pressure","SUPINE","80","mmHg","80",80,"mmHg","","","",1,2,"SCREENING 2","SCREENING","2014-05-09",-2],
["CDISCPILOT01","VS","CDISC008",5,"DIABP","Diastolic Blood Pressure","STANDING","82","mmHg","82",82,"mmHg","","","",2,2,"SCREENING 2","SCREENING","2014-05-09",-2],
["CDISCPILOT01","VS","CDISC008",6,"DIABP","Diastolic Blood Pressure","STANDING","78","mmHg","78",78,"mmHg","","","",3,2,"SCREENING 2","SCREENING","2014-05-09",-2],
["CDISCPILOT01","VS","CDISC008",7,"DIABP","Diastolic Blood Pressure","SUPINE","72","mmHg","72",72,"mmHg","","","",1,3,"BASELINE","SCREENING","2014-05-11",1],
["CDISCPILOT01","VS","CDISC008",8,"DIABP","Diastolic Blood Pressure","STANDING","76","mmHg","76",76,"mmHg","","","",2,3,"BASELINE","SCREENING","2014-05-11",1],
["CDISCPILOT01","VS","CDISC008",9,"DIABP","Diastolic Blood Pressure","STANDING","78","mmHg","78",78,"mmHg","","","Y",3,3,"BASELINE","SCREENING","2014-05-11",1],
["CDISCPILOT01","VS","CDISC008",10,"DIABP","Diastolic Blood Pressure","SUPINE","74","mmHg","74",74,"mmHg","","","",1,4,"WEEK 2","TREATMENT","2014-05-25",15],
["CDISCPILOT01","VS","CDISC008",11,"DIABP","Diastolic Blood Pressure","STANDING","78","mmHg","78",78,"mmHg","","","",2,4,"WEEK 2","TREATMENT","2014-05-25",15],
["CDISCPILOT01","VS","CDISC008",12,"DIABP","Diastolic Blood Pressure","STANDING","76","mmHg","76",76,"mmHg","","","",3,4,"WEEK 2","TREATMENT","2014-05-25",15],
["CDISCPILOT01","VS","CDISC008",13,"DIABP","Diastolic Blood Pressure","SUPINE","72","mmHg","72",72,"mmHg","","","",1,5,"WEEK 4","TREATMENT","2014-06-11",32],
["CDISCPILOT01","VS","CDISC008",14,"DIABP","Diastolic Blood Pressure","STANDING","80","mmHg","80",80,"mmHg","","","",2,5,"WEEK 4","TREATMENT","2014-06-11",32],
["CDISCPILOT01","VS","CDISC008",15,"DIABP","Diastolic Blood Pressure","STANDING","76","mmHg","76",76,"mmHg","","","",3,5,"WEEK 4","TREATMENT","2014-06-11",32],
["CDISCPILOT01","VS","CDISC008",16,"DIABP","Diastolic Blood Pressure","SUPINE","70","mmHg","70",70,"mmHg","","","",1,7,"WEEK 6","TREATMENT","2014-06-25",46],
["CDISCPILOT01","VS","CDISC008",17,"DIABP","Diastolic Blood Pressure","STANDING","74","mmHg","74",74,"mmHg","","","",2,7,"WEEK 6","TREATMENT","2014-06-25",46],
["CDISCPILOT01","VS","CDISC008",18,"DIABP","Diastolic Blood Pressure","STANDING","76","mmHg","76",76,"mmHg","","","",3,7,"WEEK 6","TREATMENT","2014-06-25",46],
["CDISCPILOT01","VS","CDISC008",19,"DIABP","Diastolic Blood Pressure","SUPINE","72","mmHg","72",72,"mmHg","","","",1,8,"WEEK 8","TREATMENT","2014-07-09",60],
["CDISCPILOT01","VS","CDISC008",20,"DIABP","Diastolic Blood Pressure","STANDING","74","mmHg","74",74,"mmHg","","","",2,8,"WEEK 8","TREATMENT","2014-07-09",60],
["CDISCPILOT01","VS","CDISC008",21,"DIABP","Diastolic Blood Pressure","STANDING","78","mmHg","78",78,"mmHg","","","",3,8,"WEEK 8","TREATMENT","2014-07-09",60],
["CDISCPILOT01","VS","CDISC008",22,"DIABP","Diastolic Blood Pressure","SUPINE","68","mmHg","68",68,"mmHg","","","",1,9,"WEEK 12","TREATMENT","2014-08-06",88],
["CDISCPILOT01","VS","CDISC008",23,"DIABP","Diastolic Blood Pressure","STANDING","78","mmHg","78",78,"mmHg","","","",2,9,"WEEK 12","TREATMENT","2014-08-06",88],
["CDISCPILOT01","VS","CDISC008",24,"DIABP","Diastolic Blood Pressure","STANDING","74","mmHg","74",74,"mmHg","","","",3,9,"WEEK 12","TREATMENT","2014-08-06",88],
["CDISCPILOT01","VS","CDISC008",25,"DIABP","Diastolic Blood Pressure","SUPINE","82","mmHg","82",82,"mmHg","","","",1,10,"WEEK 16","TREATMENT","2014-09-03",116],
["CDISCPILOT01","VS","CDISC008",26,"DIABP","Diastolic Blood Pressure","STANDING","84","mmHg","84",84,"mmHg","","","",2,10,"WEEK 16","TREATMENT","2014-09-03",116],
["CDISCPILOT01","VS","CDISC008",27,"DIABP","Diastolic Blood Pressure","STANDING","88","mmHg","88",88,"mmHg","","","",3,10,"WEEK 16","TREATMENT","2014-09-03",116],
["CDISCPILOT01","VS","CDISC008",28,"DIABP","Diastolic Blood Pressure","SUPINE","84","mmHg","84",84,"mmHg","","","",1,11,"WEEK 20","TREATMENT","2014-10-01",144],
["CDISCPILOT01","VS","CDISC008",29,"DIABP","Diastolic Blood Pressure","STANDING","82","mmHg","82",82,"mmHg","","","",2,11,"WEEK 20","TREATMENT","2014-10-01",144],
["CDISCPILOT01","VS","CDISC008",30,"DIABP","Diastolic Blood Pressure","STANDING","68","mmHg","68",68,"mmHg","","","",3,11,"WEEK 20","TREATMENT","2014-10-01",144],
["CDISCPILOT01","VS","CDISC008",31,"HEIGHT","Height","","70.0","in","177.8",177.8,"cm","","","","",1,"SCREENING 1","SCREENING","2014-05-01",-10],
["CDISCPILOT01","VS","CDISC008",32,"PULSE","Pulse Rate","SUPINE","80","beats/min","80",80,"beats/min","","","",1,1,"SCREENING 1","SCREENING","2014-05-01",-10],
["CDISCPILOT01","VS","CDISC008",33,"PULSE","Pulse Rate","STANDING","98","beats/min","98",98,"beats/min","","","",2,1,"SCREENING 1","SCREENING","2014-05-01",-10],
["CDISCPILOT01","VS","CDISC008",34,"PULSE","Pulse Rate","STANDING","90","beats/min","90",90,"beats/min","","","",3,1,"SCREENING 1","SCREENING","2014-05-01",-10],
["CDISCPILOT01","VS","CDISC008",35,"PULSE","Pulse Rate","SUPINE","76","beats/min","76",76,"beats/min","","","",1,2,"SCREENING 2","SCREENING","2014-05-09",-2],
["CDISCPILOT01","VS","CDISC008",36,"PULSE","Pulse Rate","STANDING","84","beats/min","84",84,"beats/min","","","",2,2,"SCREENING 2","SCREENING","2014-05-09",-2],
["CDISCPILOT01","VS","CDISC008",37,"PULSE","Pulse Rate","STANDING","84","beats/min","84",84,"beats/min","","","",3,2,"SCREENING 2","SCREENING","2014-05-09",-2],
["CDISCPILOT01","VS","CDISC008",38,"PULSE","Pulse Rate","SUPINE","74","beats/min","74",74,"beats/min","","","",1,3,"BASELINE","SCREENING","2014-05-11",1],
["CDISCPILOT01","VS","CDISC008",39,"PULSE","Pulse Rate","STANDING","80","beats/min","80",80,"beats/min","","","",2,3,"BASELINE","SCREENING","2014-05-11",1],
["CDISCPILOT01","VS","CDISC008",40,"PULSE","Pulse Rate","STANDING","80","beats/min","80",80,"beats/min","","","Y",3,3,"BASELINE","SCREENING","2014-05-11",1],
["CDISCPILOT01","VS","CDISC008",41,"PULSE","Pulse Rate","SUPINE","80","beats/min","80",80,"beats/min","","","",1,4,"WEEK 2","TREATMENT","2014-05-25",15],
["CDISCPILOT01","VS","CDISC008",42,"PULSE","Pulse Rate","STANDING","86","beats/min","86",86,"beats/min","","","",2,4,"WEEK 2","TREATMENT","2014-05-25",15],
["CDISCPILOT01","VS","CDISC008",43,"PULSE","Pulse Rate","STANDING","84","beats/min","84",84,"beats/min","","","",3,4,"WEEK 2","TREATMENT","2014-05-25",15],
["CDISCPILOT01","VS","CDISC008",44,"PULSE","Pulse Rate","SUPINE","76","beats/min","76",76,"beats/min","","","",1,5,"WEEK 4","TREATMENT","2014-06-11",32],
["CDISCPILOT01","VS","CDISC008",45,"PULSE","Pulse Rate","STANDING","80","beats/min","80",80,"beats/min","","","",2,5,"WEEK 4","TREATMENT","2014-06-11",32],
["CDISCPILOT01","VS","CDISC008",46,"PULSE","Pulse Rate","STANDING","80","beats/min","80",80,"beats/min","","","",3,5,"WEEK 4","TREATMENT","2014-06-11",32],
["CDISCPILOT01","VS","CDISC008",47,"PULSE","Pulse Rate","SUPINE","72","beats/min","72",72,"beats/min","","","",1,7,"WEEK 6","TREATMENT","2014-06-25",46],
["CDISCPILOT01","VS","CDISC008",48,"PULSE","Pulse Rate","STANDING","80","beats/min","80",80,"beats/min","","","",2,7,"WEEK 6","TREATMENT","2014-06-25",46],
["CDISCPILOT01","VS","CDISC008",49,"PULSE","Pulse Rate","STANDING","76","beats/min","76",76,"beats/min","","","",3,7,"WEEK 6","TREATMENT","2014-06-25",46],
["CDISCPILOT01","VS","CDISC008",50,"PULSE","Pulse Rate","SUPINE","74","beats/min","74",74,"beats/min","","","",1,8,"WEEK 8","TREATMENT","2014-07-09",60],
["CDISCPILOT01","VS","CDISC008",51,"PULSE","Pulse Rate","STANDING","80","beats/min","80",80,"beats/min","","","",2,8,"WEEK 8","TREATMENT","2014-07-09",60],
["CDISCPILOT01","VS","CDISC008",52,"PULSE","Pulse Rate","STANDING","80","beats/min","80",80,"beats/min","","","",3,8,"WEEK 8","TREATMENT","2014-07-09",60],
["CDISCPILOT01","VS","CDISC008",53,"PULSE","Pulse Rate","SUPINE","70","beats/min","70",70,"beats/min","","","",1,9,"WEEK 12","TREATMENT","2014-08-06",88],
["CDISCPILOT01","VS","CDISC008",54,"PULSE","Pulse Rate","STANDING","78","beats/min","78",78,"beats/min","","","",2,9,"WEEK 12","TREATMENT","2014-08-06",88],
["CDISCPILOT01","VS","CDISC008",55,"PULSE","Pulse Rate","STANDING","80","beats/min","80",80,"beats/min","","","",3,9,"WEEK 12","TREATMENT","2014-08-06",88],
["CDISCPILOT01","VS","CDISC008",56,"PULSE","Pulse Rate","SUPINE","78","beats/min","78",78,"beats/min","","","",1,10,"WEEK 16","TREATMENT","2014-09-03",116],
["CDISCPILOT01","VS","CDISC008",57,"PULSE","Pulse Rate","STANDING","78","beats/min","78",78,"beats/min","","","",2,10,"WEEK 16","TREATMENT","2014-09-03",116],
["CDISCPILOT01","VS","CDISC008",58,"PULSE","Pulse Rate","STANDING","78","beats/min","78",78,"beats/min","","","",3,10,"WEEK 16","TREATMENT","2014-09-03",116],
["CDISCPILOT01","VS","CDISC008",59,"PULSE","Pulse Rate","SUPINE","68","beats/min","68",68,"beats/min","","","",1,11,"WEEK 20","TREATMENT","2014-10-01",144],
["CDISCPILOT01","VS","CDISC008",60,"PULSE","Pulse Rate","STANDING","72","beats/min","72",72,"beats/min","","","",2,11,"WEEK 20","TREATMENT","2014-10-01",144],
["CDISCPILOT01","VS","CDISC008",61,"PULSE","Pulse Rate","STANDING","76","beats/min","76",76,"beats/min","","","",3,11,"WEEK 20","TREATMENT","2014-10-01",144],
["CDISCPILOT01","VS","CDISC008",62,"SYSBP","Systolic Blood Pressure","SUPINE","118","mmHg","118",118,"mmHg","","","",1,1,"SCREENING 1","SCREENING","2014-05-01",-10],
["CDISCPILOT01","VS","CDISC008",63,"SYSBP","Systolic Blood Pressure","STANDING","124","mmHg","124",124,"mmHg","","","",2,1,"SCREENING 1","SCREENING","2014-05-01",-10],
["CDISCPILOT01","VS","CDISC008",64,"SYSBP","Systolic Blood Pressure","STANDING","136","mmHg","136",136,"mmHg","","","",3,1,"SCREENING 1","SCREENING","2014-05-01",-10],
["CDISCPILOT01","VS","CDISC008",65,"SYSBP","Systolic Blood Pressure","SUPINE","124","mmHg","124",124,"mmHg","","","",1,2,"SCREENING 2","SCREENING","2014-05-09",-2],
["CDISCPILOT01","VS","CDISC008",66,"SYSBP","Systolic Blood Pressure","STANDING","126","mmHg","126",126,"mmHg","","","",2,2,"SCREENING 2","SCREENING","2014-05-09",-2],
["CDISCPILOT01","VS","CDISC008",67,"SYSBP","Systolic Blood Pressure","STANDING","130","mmHg","130",130,"mmHg","","","",3,2,"SCREENING 2","SCREENING","2014-05-09",-2],
["CDISCPILOT01","VS","CDISC008",68,"SYSBP","Systolic Blood Pressure","SUPINE","116","mmHg","116",116,"mmHg","","","",1,3,"BASELINE","SCREENING","2014-05-11",1],
["CDISCPILOT01","VS","CDISC008",69,"SYSBP","Systolic Blood Pressure","STANDING","120","mmHg","120",120,"mmHg","","","",2,3,"BASELINE","SCREENING","2014-05-11",1],
["CDISCPILOT01","VS","CDISC008",70,"SYSBP","Systolic Blood Pressure","STANDING","126","mmHg","126",126,"mmHg","","","Y",3,3,"BASELINE","SCREENING","2014-05-11",1],
["CDISCPILOT01","VS","CDISC008",71,"SYSBP","Systolic Blood Pressure","SUPINE","124","mmHg","124",124,"mmHg","","","",1,4,"WEEK 2","TREATMENT","2014-05-25",15],
["CDISCPILOT01","VS","CDISC008",72,"SYSBP","Systolic Blood Pressure","STANDING","128","mmHg","128",128,"mmHg","","","",2,4,"WEEK 2","TREATMENT","2014-05-25",15],
["CDISCPILOT01","VS","CDISC008",73,"SYSBP","Systolic Blood Pressure","STANDING","130","mmHg","130",130,"mmHg","","","",3,4,"WEEK 2","TREATMENT","2014-05-25",15],
["CDISCPILOT01","VS","CDISC008",74,"SYSBP","Systolic Blood Pressure","SUPINE","120","mmHg","120",120,"mmHg","","","",1,5,"WEEK 4","TREATMENT","2014-06-11",32],
["CDISCPILOT01","VS","CDISC008",75,"SYSBP","Systolic Blood Pressure","STANDING","128","mmHg","128",128,"mmHg","","","",2,5,"WEEK 4","TREATMENT","2014-06-11",32],
["CDISCPILOT01","VS","CDISC008",76,"SYSBP","Systolic Blood Pressure","STANDING","126","mmHg","126",126,"mmHg","","","",3,5,"WEEK 4","TREATMENT","2014-06-11",32],
["CDISCPILOT01","VS","CDISC008",77,"SYSBP","Systolic Blood Pressure","SUPINE","120","mmHg","120",120,"mmHg","","","",1,7,"WEEK 6","TREATMENT","2014-06-25",46],
["CDISCPILOT01","VS","CDISC008",78,"SYSBP","Systolic Blood Pressure","STANDING","134","mmHg","134",134,"mmHg","","","",2,7,"WEEK 6","TREATMENT","2014-06-25",46],
["CDISCPILOT01","VS","CDISC008",79,"SYSBP","Systolic Blood Pressure","STANDING","130","mmHg","130",130,"mmHg","","","",3,7,"WEEK 6","TREATMENT","2014-06-25",46],
["CDISCPILOT01","VS","CDISC008",80,"SYSBP","Systolic Blood Pressure","SUPINE","126","mmHg","126",126,"mmHg","","","",1,8,"WEEK 8","TREATMENT","2014-07-09",60],
["CDISCPILOT01","VS","CDISC008",81,"SYSBP","Systolic Blood Pressure","STANDING","130","mmHg","130",130,"mmHg","","","",2,8,"WEEK 8","TREATMENT","2014-07-09",60],
["CDISCPILOT01","VS","CDISC008",82,"SYSBP","Systolic Blood Pressure","STANDING","132","mmHg","132",132,"mmHg","","","",3,8,"WEEK 8","TREATMENT","2014-07-09",60],
["CDISCPILOT01","VS","CDISC008",83,"SYSBP","Systolic Blood Pressure","SUPINE","126","mmHg","126",126,"mmHg","","","",1,9,"WEEK 12","TREATMENT","2014-08-06",88],
["CDISCPILOT01","VS","CDISC008",84,"SYSBP","Systolic Blood Pressure","STANDING","128","mmHg","128",128,"mmHg","","","",2,9,"WEEK 12","TREATMENT","2014-08-06",88],
["CDISCPILOT01","VS","CDISC008",85,"SYSBP","Systolic Blood Pressure","STANDING","132","mmHg","132",132,"mmHg","","","",3,9,"WEEK 12","TREATMENT","2014-08-06",88],
["CDISCPILOT01","VS","CDISC008",86,"SYSBP","Systolic Blood Pressure","SUPINE","160","mmHg","160",160,"mmHg","","","",1,10,"WEEK 16","TREATMENT","2014-09-03",116],
["CDISCPILOT01","VS","CDISC008",87,"SYSBP","Systolic Blood Pressure","STANDING","140","mmHg","140",140,"mmHg","","","",2,10,"WEEK 16","TREATMENT","2014-09-03",116],
["CDISCPILOT01","VS","CDISC008",88,"SYSBP","Systolic Blood Pressure","STANDING","142","mmHg","142",142,"mmHg","","","",3,10,"WEEK 16","TREATMENT","2014-09-03",116],
["CDISCPILOT01","VS","CDISC008",89,"SYSBP","Systolic Blood Pressure","SUPINE","152","mmHg","152",152,"mmHg","","","",1,11,"WEEK 20","TREATMENT","2014-10-01",144],
["CDISCPILOT01","VS","CDISC008",90,"SYSBP","Systolic Blood Pressure","STANDING","136","mmHg","136",136,"mmHg","","","",2,11,"WEEK 20","TREATMENT","2014-10-01",144],
["CDISCPILOT01","VS","CDISC008",91,"SYSBP","Systolic Blood Pressure","STANDING","118","mmHg","118",118,"mmHg","","","",3,11,"WEEK 20","TREATMENT","2014-10-01",144],
["CDISCPILOT01","VS","CDISC008",92,"TEMP","Temperature","","97.6","F","36.44",36.44,"C","","ORAL CAVITY","","",1,"SCREENING 1","SCREENING","2014-05-01",-10],
["CDISCPILOT01","VS","CDISC008",93,"TEMP","Temperature","","98.0","F","36.67",36.67,"C","","ORAL CAVITY","","",2,"SCREENING 2","SCREENING","2014-05-09",-2],
["CDISCPILOT01","VS","CDISC008",94,"TEMP","Temperature","","98.4","F","36.89",36.89,"C","","ORAL CAVITY","","",3,"BASELINE","SCREENING","2014-05-11",1],
["CDISCPILOT01","VS","CDISC008",95,"TEMP","Temperature","","98.0","F","36.67",36.67,"C","","ORAL CAVITY","","",4,"WEEK 2","TREATMENT","2014-05-25",15],
["CDISCPILOT01","VS","CDISC008",96,"TEMP","Temperature","","98.3","F","36.83",36.83,"C","","ORAL CAVITY","","",5,"WEEK 4","TREATMENT","2014-06-11",32],
["CDISCPILOT01","VS","CDISC008",97,"TEMP","Temperature","","098.5","F","36.94",36.94,"C","","ORAL CAVITY","","",7,"WEEK 6","TREATMENT","2014-06-25",46],
["CDISCPILOT01","VS","CDISC008",98,"TEMP","Temperature","","098.8","F","37.11",37.11,"C","","ORAL CAVITY","","",8,"WEEK 8","TREATMENT","2014-07-09",60],
["CDISCPILOT01","VS","CDISC008",99,"TEMP","Temperature","","098.4","F","36.89",36.89,"C","","ORAL CAVITY","","",9,"WEEK 12","TREATMENT","2014-08-06",88],
["CDISCPILOT01","VS","CDISC008",100,"TEMP","Temperature","","098.0","F","36.67",36.67,"C","","ORAL CAVITY","","",10,"WEEK 16","TREATMENT","2014-09-03",116],
["CDISCPILOT01","VS","CDISC008",101,"TEMP","Temperature","","097.6","F","36.44",36.44,"C","","ORAL CAVITY","","",11,"WEEK 20","TREATMENT","2014-10-01",144],
["CDISCPILOT01","VS","CDISC008",102,"WEIGHT","Weight","","158.5","LB","71.9",71.9,"kg","","","","",1,"SCREENING 1","SCREENING","2014-05-01",-10],
["CDISCPILOT01","VS","CDISC008",103,"WEIGHT","Weight","","159.0","LB","72.12",72.12,"kg","","","","",3,"BASELINE","SCREENING","2014-05-11",1],
["CDISCPILOT01","VS","CDISC008",104,"WEIGHT","Weight","","160.0","LB","72.58",72.58,"kg","","","","",4,"WEEK 2","TREATMENT","2014-05-25",15],
["CDISCPILOT01","VS","CDISC008",105,"WEIGHT","Weight","","160.0","LB","72.58",72.58,"kg","","","","",5,"WEEK 4","TREATMENT","2014-06-11",32],
["CDISCPILOT01","VS","CDISC008",106,"WEIGHT","Weight","","158.0","LB","71.67",71.67,"kg","","","","",7,"WEEK 6","TREATMENT","2014-06-25",46],
["CDISCPILOT01","VS","CDISC008",107,"WEIGHT","Weight","","159.0","LB","72.12",72.12,"kg","","","","",8,"WEEK 8","TREATMENT","2014-07-09",60],
["CDISCPILOT01","VS","CDISC008",108,"WEIGHT","Weight","","158.0","LB","71.67",71.67,"kg","","","","",9,"WEEK 12","TREATMENT","2014-08-06",88],
["CDISCPILOT01","VS","CDISC008",109,"WEIGHT","Weight","","158.0","LB","71.67",71.67,"kg","","","","",10,"WEEK 16","TREATMENT","2014-09-03",116],
["CDISCPILOT01","VS","CDISC008",110,"WEIGHT","Weight","","159.0","LB","72.12",72.12,"kg","","","","",11,"WEEK 20","TREATMENT","2014-10-01",144],
["CDISCPILOT01","VS","CDISC009",1,"DIABP","Diastolic Blood Pressure","STANDING","78","mmHg","78",78,"mmHg","","","","",1,"SCREENING 1","SCREENING","2012-10-06",-16],
["CDISCPILOT01","VS","CDISC009",2,"DIABP","Diastolic Blood Pressure","STANDING","078","mmHg","78",78,"mmHg","","","","",2,"SCREENING 2","SCREENING","2012-10-20",-2],
["CDISCPILOT01","VS","CDISC009",3,"DIABP","Diastolic Blood Pressure","STANDING","76","mmHg","76",76,"mmHg","","","Y","",3,"BASELINE","SCREENING","2012-10-22",1],
["CDISCPILOT01","VS","CDISC009",4,"DIABP","Diastolic Blood Pressure","STANDING","78","mmHg","78",78,"mmHg","","","","",4,"WEEK 2","TREATMENT","2012-11-05",15],
["CDISCPILOT01","VS","CDISC009",5,"DIABP","Diastolic Blood Pressure","STANDING","72","mmHg","72",72,"mmHg","","","","",5,"WEEK 4","TREATMENT","2012-11-20",30],
["CDISCPILOT01","VS","CDISC009",6,"DIABP","Diastolic Blood Pressure","STANDING","78","mmHg","78",78,"mmHg","","","","",7,"WEEK 6","TREATMENT","2012-12-08",48],
["CDISCPILOT01","VS","CDISC009",7,"DIABP","Diastolic Blood Pressure","STANDING","80","mmHg","80",80,"mmHg","","","","",8,"WEEK 8","TREATMENT","2012-12-22",62],
["CDISCPILOT01","VS","CDISC009",8,"DIABP","Diastolic Blood Pressure","SUPINE","80","mmHg","80",80,"mmHg","","","",1,9,"WEEK 12","TREATMENT","2013-01-19",90],
["CDISCPILOT01","VS","CDISC009",9,"DIABP","Diastolic Blood Pressure","STANDING","80","mmHg","80",80,"mmHg","","","",2,9,"WEEK 12","TREATMENT","2013-01-19",90],
["CDISCPILOT01","VS","CDISC009",10,"DIABP","Diastolic Blood Pressure","STANDING","80","mmHg","80",80,"mmHg","","","",3,9,"WEEK 12","TREATMENT","2013-01-19",90],
["CDISCPILOT01","VS","CDISC009",11,"DIABP","Diastolic Blood Pressure","SUPINE","86","mmHg","86",86,"mmHg","","","",1,10,"WEEK 16","TREATMENT","2013-02-16",118],
["CDISCPILOT01","VS","CDISC009",12,"DIABP","Diastolic Blood Pressure","STANDING","78","mmHg","78",78,"mmHg","","","",2,10,"WEEK 16","TREATMENT","2013-02-16",118],
["CDISCPILOT01","VS","CDISC009",13,"DIABP","Diastolic Blood Pressure","STANDING","84","mmHg","84",84,"mmHg","","","",3,10,"WEEK 16","TREATMENT","2013-02-16",118],
["CDISCPILOT01","VS","CDISC009",14,"DIABP","Diastolic Blood Pressure","SUPINE","80","mmHg","80",80,"mmHg","","","",1,11,"WEEK 20","TREATMENT","2013-03-16",146],
["CDISCPILOT01","VS","CDISC009",15,"DIABP","Diastolic Blood Pressure","STANDING","78","mmHg","78",78,"mmHg","","","",2,11,"WEEK 20","TREATMENT","2013-03-16",146],
["CDISCPILOT01","VS","CDISC009",16,"DIABP","Diastolic Blood Pressure","STANDING","80","mmHg","80",80,"mmHg","","","",3,11,"WEEK 20","TREATMENT","2013-03-16",146],
["CDISCPILOT01","VS","CDISC009",17,"DIABP","Diastolic Blood Pressure","SUPINE","80","mmHg","80",80,"mmHg","","","",1,12,"WEEK 24","TREATMENT","2013-04-10",171],
["CDISCPILOT01","VS","CDISC009",18,"DIABP","Diastolic Blood Pressure","STANDING","80","mmHg","80",80,"mmHg","","","",2,12,"WEEK 24","TREATMENT","2013-04-10",171],
["CDISCPILOT01","VS","CDISC009",19,"DIABP","Diastolic Blood Pressure","STANDING","82","mmHg","82",82,"mmHg","","","",3,12,"WEEK 24","TREATMENT","2013-04-10",171],
["CDISCPILOT01","VS","CDISC009",20,"DIABP","Diastolic Blood Pressure","SUPINE","68","mmHg","68",68,"mmHg","","","",1,13,"WEEK 26","TREATMENT","2013-04-28",189],
["CDISCPILOT01","VS","CDISC009",21,"DIABP","Diastolic Blood Pressure","STANDING","68","mmHg","68",68,"mmHg","","","",2,13,"WEEK 26","TREATMENT","2013-04-28",189],
["CDISCPILOT01","VS","CDISC009",22,"DIABP","Diastolic Blood Pressure","STANDING","70","mmHg","70",70,"mmHg","","","",3,13,"WEEK 26","TREATMENT","2013-04-28",189],
["CDISCPILOT01","VS","CDISC009",23,"HEIGHT","Height","","062.0","in","157.48",157.48,"cm","","","","",1,"SCREENING 1","SCREENING","2012-10-06",-16],
["CDISCPILOT01","VS","CDISC009",24,"PULSE","Pulse Rate","STANDING","60","beats/min","60",60,"beats/min","","","","",1,"SCREENING 1","SCREENING","2012-10-06",-16],
["CDISCPILOT01","VS","CDISC009",25,"PULSE","Pulse Rate","STANDING","78","beats/min","78",78,"beats/min","","","","",2,"SCREENING 2","SCREENING","2012-10-20",-2],
["CDISCPILOT01","VS","CDISC009",26,"PULSE","Pulse Rate","STANDING","62","beats/min","62",62,"beats/min","","","Y","",3,"BASELINE","SCREENING","2012-10-22",1],
["CDISCPILOT01","VS","CDISC009",27,"PULSE","Pulse Rate","STANDING","80","beats/min","80",80,"beats/min","","","","",4,"WEEK 2","TREATMENT","2012-11-05",15],
["CDISCPILOT01","VS","CDISC009",28,"PULSE","Pulse Rate","STANDING","78","beats/min","78",78,"beats/min","","","","",5,"WEEK 4","TREATMENT","2012-11-20",30],
["CDISCPILOT01","VS","CDISC009",29,"PULSE","Pulse Rate","STANDING","74","beats/min","74",74,"beats/min","","","","",7,"WEEK 6","TREATMENT","2012-12-08",48],
["CDISCPILOT01","VS","CDISC009",30,"PULSE","Pulse Rate","STANDING","60","beats/min","60",60,"beats/min","","","","",8,"WEEK 8","TREATMENT","2012-12-22",62],
["CDISCPILOT01","VS","CDISC009",31,"PULSE","Pulse Rate","SUPINE","72","beats/min","72",72,"beats/min","","","",1,9,"WEEK 12","TREATMENT","2013-01-19",90],
["CDISCPILOT01","VS","CDISC009",32,"PULSE","Pulse Rate","STANDING","84","beats/min","84",84,"beats/min","","","",2,9,"WEEK 12","TREATMENT","2013-01-19",90],
["CDISCPILOT01","VS","CDISC009",33,"PULSE","Pulse Rate","STANDING","72","beats/min","72",72,"beats/min","","","",3,9,"WEEK 12","TREATMENT","2013-01-19",90],
["CDISCPILOT01","VS","CDISC009",34,"PULSE","Pulse Rate","SUPINE","60","beats/min","60",60,"beats/min","","","",1,10,"WEEK 16","TREATMENT","2013-02-16",118],
["CDISCPILOT01","VS","CDISC009",35,"PULSE","Pulse Rate","STANDING","56","beats/min","56",56,"beats/min","","","",2,10,"WEEK 16","TREATMENT","2013-02-16",118],
["CDISCPILOT01","VS","CDISC009",36,"PULSE","Pulse Rate","STANDING","64","beats/min","64",64,"beats/min","","","",3,10,"WEEK 16","TREATMENT","2013-02-16",118],
["CDISCPILOT01","VS","CDISC009",37,"PULSE","Pulse Rate","SUPINE","64","beats/min","64",64,"beats/min","","","",1,11,"WEEK 20","TREATMENT","2013-03-16",146],
["CDISCPILOT01","VS","CDISC009",38,"PULSE","Pulse Rate","STANDING","66","beats/min","66",66,"beats/min","","","",2,11,"WEEK 20","TREATMENT","2013-03-16",146],
["CDISCPILOT01","VS","CDISC009",39,"PULSE","Pulse Rate","STANDING","60","beats/min","60",60,"beats/min","","","",3,11,"WEEK 20","TREATMENT","2013-03-16",146],
["CDISCPILOT01","VS","CDISC009",40,"PULSE","Pulse Rate","SUPINE","60","beats/min","60",60,"beats/min","","","",1,12,"WEEK 24","TREATMENT","2013-04-10",171],
["CDISCPILOT01","VS","CDISC009",41,"PULSE","Pulse Rate","STANDING","72","beats/min","72",72,"beats/min","","","",2,12,"WEEK 24","TREATMENT","2013-04-10",171],
["CDISCPILOT01","VS","CDISC009",42,"PULSE","Pulse Rate","STANDING","72","beats/min","72",72,"beats/min","","","",3,12,"WEEK 24","TREATMENT","2013-04-10",171],
["CDISCPILOT01","VS","CDISC009",43,"PULSE","Pulse Rate","SUPINE","68","beats/min","68",68,"beats/min","","","",1,13,"WEEK 26","TREATMENT","2013-04-28",189],
["CDISCPILOT01","VS","CDISC009",44,"PULSE","Pulse Rate","STANDING","64","beats/min","64",64,"beats/min","","","",2,13,"WEEK 26","TREATMENT","2013-04-28",189],
["CDISCPILOT01","VS","CDISC009",45,"PULSE","Pulse Rate","STANDING","60","beats/min","60",60,"beats/min","","","",3,13,"WEEK 26","TREATMENT","2013-04-28",189],
["CDISCPILOT01","VS","CDISC009",46,"SYSBP","Systolic Blood Pressure","STANDING","174","mmHg","174",174,"mmHg","","","","",1,"SCREENING 1","SCREENING","2012-10-06",-16],
["CDISCPILOT01","VS","CDISC009",47,"SYSBP","Systolic Blood Pressure","STANDING","160","mmHg","160",160,"mmHg","","","","",2,"SCREENING 2","SCREENING","2012-10-20",-2],
["CDISCPILOT01","VS","CDISC009",48,"SYSBP","Systolic Blood Pressure","STANDING","170","mmHg","170",170,"mmHg","","","Y","",3,"BASELINE","SCREENING","2012-10-22",1],
["CDISCPILOT01","VS","CDISC009",49,"SYSBP","Systolic Blood Pressure","STANDING","168","mmHg","168",168,"mmHg","","","","",4,"WEEK 2","TREATMENT","2012-11-05",15],
["CDISCPILOT01","VS","CDISC009",50,"SYSBP","Systolic Blood Pressure","STANDING","142","mmHg","142",142,"mmHg","","","","",5,"WEEK 4","TREATMENT","2012-11-20",30],
["CDISCPILOT01","VS","CDISC009",51,"SYSBP","Systolic Blood Pressure","STANDING","150","mmHg","150",150,"mmHg","","","","",7,"WEEK 6","TREATMENT","2012-12-08",48],
["CDISCPILOT01","VS","CDISC009",52,"SYSBP","Systolic Blood Pressure","STANDING","130","mmHg","130",130,"mmHg","","","","",8,"WEEK 8","TREATMENT","2012-12-22",62],
["CDISCPILOT01","VS","CDISC009",53,"SYSBP","Systolic Blood Pressure","SUPINE","160","mmHg","160",160,"mmHg","","","",1,9,"WEEK 12","TREATMENT","2013-01-19",90],
["CDISCPILOT01","VS","CDISC009",54,"SYSBP","Systolic Blood Pressure","STANDING","160","mmHg","160",160,"mmHg","","","",2,9,"WEEK 12","TREATMENT","2013-01-19",90],
["CDISCPILOT01","VS","CDISC009",55,"SYSBP","Systolic Blood Pressure","STANDING","160","mmHg","160",160,"mmHg","","","",3,9,"WEEK 12","TREATMENT","2013-01-19",90],
["CDISCPILOT01","VS","CDISC009",56,"SYSBP","Systolic Blood Pressure","SUPINE","162","mmHg","162",162,"mmHg","","","",1,10,"WEEK 16","TREATMENT","2013-02-16",118],
["CDISCPILOT01","VS","CDISC009",57,"SYSBP","Systolic Blood Pressure","STANDING","150","mmHg","150",150,"mmHg","","","",2,10,"WEEK 16","TREATMENT","2013-02-16",118],
["CDISCPILOT01","VS","CDISC009",58,"SYSBP","Systolic Blood Pressure","STANDING","162","mmHg","162",162,"mmHg","","","",3,10,"WEEK 16","TREATMENT","2013-02-16",118],
["CDISCPILOT01","VS","CDISC009",59,"SYSBP","Systolic Blood Pressure","SUPINE","160","mmHg","160",160,"mmHg","","","",1,11,"WEEK 20","TREATMENT","2013-03-16",146],
["CDISCPILOT01","VS","CDISC009",60,"SYSBP","Systolic Blood Pressure","STANDING","142","mmHg","142",142,"mmHg","","","",2,11,"WEEK 20","TREATMENT","2013-03-16",146],
["CDISCPILOT01","VS","CDISC009",61,"SYSBP","Systolic Blood Pressure","STANDING","138","mmHg","138",138,"mmHg","","","",3,11,"WEEK 20","TREATMENT","2013-03-16",146],
["CDISCPILOT01","VS","CDISC009",62,"SYSBP","Systolic Blood Pressure","SUPINE","160","mmHg","160",160,"mmHg","","","",1,12,"WEEK 24","TREATMENT","2013-04-10",171],
["CDISCPILOT01","VS","CDISC009",63,"SYSBP","Systolic Blood Pressure","STANDING","140","mmHg","140",140,"mmHg","","","",2,12,"WEEK 24","TREATMENT","2013-04-10",171],
["CDISCPILOT01","VS","CDISC009",64,"SYSBP","Systolic Blood Pressure","STANDING","150","mmHg","150",150,"mmHg","","","",3,12,"WEEK 24","TREATMENT","2013-04-10",171],
["CDISCPILOT01","VS","CDISC009",65,"SYSBP","Systolic Blood Pressure","SUPINE","124","mmHg","124",124,"mmHg","","","",1,13,"WEEK 26","TREATMENT","2013-04-28",189],
["CDISCPILOT01","VS","CDISC009",66,"SYSBP","Systolic Blood Pressure","STANDING","134","mmHg","134",134,"mmHg","","","",2,13,"WEEK 26","TREATMENT","2013-04-28",189],
["CDISCPILOT01","VS","CDISC009",67,"SYSBP","Systolic Blood Pressure","STANDING","152","mmHg","152",152,"mmHg","","","",3,13,"WEEK 26","TREATMENT","2013-04-28",189],
["CDISCPILOT01","VS","CDISC009",68,"TEMP","Temperature","","098.4","F","36.89",36.89,"C","","EAR","","",1,"SCREENING 1","SCREENING","2012-10-06",-16],
["CDISCPILOT01","VS","CDISC009",69,"TEMP","Temperature","","097.3","F","36.28",36.28,"C","","EAR","","",2,"SCREENING 2","SCREENING","2012-10-20",-2],
["CDISCPILOT01","VS","CDISC009",70,"TEMP","Temperature","","098.2","F","36.78",36.78,"C","","EAR","","",3,"BASELINE","SCREENING","2012-10-22",1],
["CDISCPILOT01","VS","CDISC009",71,"TEMP","Temperature","","098.0","F","36.67",36.67,"C","","EAR","","",4,"WEEK 2","TREATMENT","2012-11-05",15],
["CDISCPILOT01","VS","CDISC009",72,"TEMP","Temperature","","096.8","F","36",36,"C","","EAR","","",5,"WEEK 4","TREATMENT","2012-11-20",30],
["CDISCPILOT01","VS","CDISC009",73,"TEMP","Temperature","","097.7","F","36.5",36.5,"C","","EAR","","",7,"WEEK 6","TREATMENT","2012-12-08",48],
["CDISCPILOT01","VS","CDISC009",74,"TEMP","Temperature","","097.5","F","36.39",36.39,"C","","EAR","","",8,"WEEK 8","TREATMENT","2012-12-22",62],
["CDISCPILOT01","VS","CDISC009",75,"TEMP","Temperature","","098.4","F","36.89",36.89,"C","","EAR","","",9,"WEEK 12","TREATMENT","2013-01-19",90],
["CDISCPILOT01","VS","CDISC009",76,"TEMP","Temperature","","097.5","F","36.39",36.39,"C","","EAR","","",10,"WEEK 16","TREATMENT","2013-02-16",118],
["CDISCPILOT01","VS","CDISC009",77,"TEMP","Temperature","","096.4","F","35.78",35.78,"C","","EAR","","",11,"WEEK 20","TREATMENT","2013-03-16",146],
["CDISCPILOT01","VS","CDISC009",78,"TEMP","Temperature","","096.1","F","35.61",35.61,"C","","EAR","","",12,"WEEK 24","TREATMENT","2013-04-10",171],
["CDISCPILOT01","VS","CDISC009",79,"TEMP","Temperature","","097.8","F","36.56",36.56,"C","","EAR","","",13,"WEEK 26","TREATMENT","2013-04-28",189],
["CDISCPILOT01","VS","CDISC009",80,"WEIGHT","Weight","","147.0","LB","66.68",66.68,"kg","","","","",1,"SCREENING 1","SCREENING","2012-10-06",-16],
["CDISCPILOT01","VS","CDISC009",81,"WEIGHT","Weight","","147.0","LB","66.68",66.68,"kg","","","","",3,"BASELINE","SCREENING","2012-10-22",1],
["CDISCPILOT01","VS","CDISC009",82,"WEIGHT","Weight","","157.0","LB","71.22",71.22,"kg","","","","",5,"WEEK 4","TREATMENT","2012-11-20",30],
["CDISCPILOT01","VS","CDISC009",83,"WEIGHT","Weight","","156.0","LB","70.76",70.76,"kg","","","","",7,"WEEK 6","TREATMENT","2012-12-08",48],
["CDISCPILOT01","VS","CDISC009",84,"WEIGHT","Weight","","157.0","LB","71.22",71.22,"kg","","","","",8,"WEEK 8","TREATMENT","2012-12-22",62],
["CDISCPILOT01","VS","CDISC009",85,"WEIGHT","Weight","","158.0","LB","71.67",71.67,"kg","","","","",9,"WEEK 12","TREATMENT","2013-01-19",90],
["CDISCPILOT01","VS","CDISC009",86,"WEIGHT","Weight","","157.0","LB","71.22",71.22,"kg","","","","",10,"WEEK 16","TREATMENT","2013-02-16",118],
["CDISCPILOT01","VS","CDISC009",87,"WEIGHT","Weight","","158.0","LB","71.67",71.67,"kg","","","","",11,"WEEK 20","TREATMENT","2013-03-16",146],
["CDISCPILOT01","VS","CDISC009",88,"WEIGHT","Weight","","155.0","LB","70.31",70.31,"kg","","","","",12,"WEEK 24","TREATMENT","2013-04-10",171],
["CDISCPILOT01","VS","CDISC009",89,"WEIGHT","Weight","","156.0","LB","70.76",70.76,"kg","","","","",13,"WEEK 26","TREATMENT","2013-04-28",189],
["CDISCPILOT01","VS","CDISC010",1,"DIABP","Diastolic Blood Pressure","SUPINE","110","mmHg","110",110,"mmHg","","","",1,1,"SCREENING 1","SCREENING","2013-09-08",-13],
["CDISCPILOT01","VS","CDISC010",2,"DIABP","Diastolic Blood Pressure","STANDING","100","mmHg","100",100,"mmHg","","","",2,1,"SCREENING 1","SCREENING","2013-09-08",-13],
["CDISCPILOT01","VS","CDISC010",3,"DIABP","Diastolic Blood Pressure","STANDING","100","mmHg","100",100,"mmHg","","","",3,1,"SCREENING 1","SCREENING","2013-09-08",-13],
["CDISCPILOT01","VS","CDISC010",4,"DIABP","Diastolic Blood Pressure","SUPINE","80","mmHg","80",80,"mmHg","","","",1,2,"SCREENING 2","SCREENING","2013-09-19",-2],
["CDISCPILOT01","VS","CDISC010",5,"DIABP","Diastolic Blood Pressure","STANDING","80","mmHg","80",80,"mmHg","","","",2,2,"SCREENING 2","SCREENING","2013-09-19",-2],
["CDISCPILOT01","VS","CDISC010",6,"DIABP","Diastolic Blood Pressure","STANDING","76","mmHg","76",76,"mmHg","","","",3,2,"SCREENING 2","SCREENING","2013-09-19",-2],
["CDISCPILOT01","VS","CDISC010",7,"DIABP","Diastolic Blood Pressure","SUPINE","64","mmHg","64",64,"mmHg","","","",1,3,"BASELINE","SCREENING","2013-09-21",1],
["CDISCPILOT01","VS","CDISC010",8,"DIABP","Diastolic Blood Pressure","STANDING","78","mmHg","78",78,"mmHg","","","",2,3,"BASELINE","SCREENING","2013-09-21",1],
["CDISCPILOT01","VS","CDISC010",9,"DIABP","Diastolic Blood Pressure","STANDING","84","mmHg","84",84,"mmHg","","","Y",3,3,"BASELINE","SCREENING","2013-09-21",1],
["CDISCPILOT01","VS","CDISC010",10,"HEIGHT","Height","","060.0","in","152.4",152.4,"cm","","","","",1,"SCREENING 1","SCREENING","2013-09-08",-13],
["CDISCPILOT01","VS","CDISC010",11,"PULSE","Pulse Rate","SUPINE","90","beats/min","90",90,"beats/min","","","",1,1,"SCREENING 1","SCREENING","2013-09-08",-13],
["CDISCPILOT01","VS","CDISC010",12,"PULSE","Pulse Rate","STANDING","88","beats/min","88",88,"beats/min","","","",2,1,"SCREENING 1","SCREENING","2013-09-08",-13],
["CDISCPILOT01","VS","CDISC010",13,"PULSE","Pulse Rate","STANDING","90","beats/min","90",90,"beats/min","","","",3,1,"SCREENING 1","SCREENING","2013-09-08",-13],
["CDISCPILOT01","VS","CDISC010",14,"PULSE","Pulse Rate","SUPINE","90","beats/min","90",90,"beats/min","","","",1,2,"SCREENING 2","SCREENING","2013-09-19",-2],
["CDISCPILOT01","VS","CDISC010",15,"PULSE","Pulse Rate","STANDING","92","beats/min","92",92,"beats/min","","","",2,2,"SCREENING 2","SCREENING","2013-09-19",-2],
["CDISCPILOT01","VS","CDISC010",16,"PULSE","Pulse Rate","STANDING","90","beats/min","90",90,"beats/min","","","",3,2,"SCREENING 2","SCREENING","2013-09-19",-2],
["CDISCPILOT01","VS","CDISC010",17,"PULSE","Pulse Rate","SUPINE","98","beats/min","98",98,"beats/min","","","",1,3,"BASELINE","SCREENING","2013-09-21",1],
["CDISCPILOT01","VS","CDISC010",18,"PULSE","Pulse Rate","STANDING","104","beats/min","104",104,"beats/min","","","",2,3,"BASELINE","SCREENING","2013-09-21",1],
["CDISCPILOT01","VS","CDISC010",19,"PULSE","Pulse Rate","STANDING","88","beats/min","88",88,"beats/min","","","Y",3,3,"BASELINE","SCREENING","2013-09-21",1],
["CDISCPILOT01","VS","CDISC010",20,"SYSBP","Systolic Blood Pressure","SUPINE","200","mmHg","200",200,"mmHg","","","",1,1,"SCREENING 1","SCREENING","2013-09-08",-13],
["CDISCPILOT01","VS","CDISC010",21,"SYSBP","Systolic Blood Pressure","STANDING","200","mmHg","200",200,"mmHg","","","",2,1,"SCREENING 1","SCREENING","2013-09-08",-13],
["CDISCPILOT01","VS","CDISC010",22,"SYSBP","Systolic Blood Pressure","STANDING","200","mmHg","200",200,"mmHg","","","",3,1,"SCREENING 1","SCREENING","2013-09-08",-13],
["CDISCPILOT01","VS","CDISC010",23,"SYSBP","Systolic Blood Pressure","SUPINE","180","mmHg","180",180,"mmHg","","","",1,2,"SCREENING 2","SCREENING","2013-09-19",-2],
["CDISCPILOT01","VS","CDISC010",24,"SYSBP","Systolic Blood Pressure","STANDING","182","mmHg","182",182,"mmHg","","","",2,2,"SCREENING 2","SCREENING","2013-09-19",-2],
["CDISCPILOT01","VS","CDISC010",25,"SYSBP","Systolic Blood Pressure","STANDING","178","mmHg","178",178,"mmHg","","","",3,2,"SCREENING 2","SCREENING","2013-09-19",-2],
["CDISCPILOT01","VS","CDISC010",26,"SYSBP","Systolic Blood Pressure","SUPINE","160","mmHg","160",160,"mmHg","","","",1,3,"BASELINE","SCREENING","2013-09-21",1],
["CDISCPILOT01","VS","CDISC010",27,"SYSBP","Systolic Blood Pressure","STANDING","160","mmHg","160",160,"mmHg","","","",2,3,"BASELINE","SCREENING","2013-09-21",1],
["CDISCPILOT01","VS","CDISC010",28,"SYSBP","Systolic Blood Pressure","STANDING","160","mmHg","160",160,"mmHg","","","Y",3,3,"BASELINE","SCREENING","2013-09-21",1],
["CDISCPILOT01","VS","CDISC010",29,"TEMP","Temperature","","097.3","F","36.28",36.28,"C","","EAR","","",1,"SCREENING 1","SCREENING","2013-09-08",-13],
["CDISCPILOT01","VS","CDISC010",30,"TEMP","Temperature","","097.1","F","36.17",36.17,"C","","EAR","","",2,"SCREENING 2","SCREENING","2013-09-19",-2],
["CDISCPILOT01","VS","CDISC010",31,"TEMP","Temperature","","097.4","F","36.33",36.33,"C","","EAR","","",3,"BASELINE","SCREENING","2013-09-21",1],
["CDISCPILOT01","VS","CDISC010",32,"WEIGHT","Weight","","120.0","LB","54.43",54.43,"kg","","","","",1,"SCREENING 1","SCREENING","2013-09-08",-13],
["CDISCPILOT01","VS","CDISC010",33,"WEIGHT","Weight","","120.0","LB","54.43",54.43,"kg","","","","",3,"BASELINE","SCREENING","2013-09-21",1],
["CDISCPILOT01","VS","CDISC011",1,"DIABP","Diastolic Blood Pressure","STANDING","70","mmHg","70",70,"mmHg","","","","",1,"SCREENING 1","SCREENING","2012-11-21",-16],
["CDISCPILOT01","VS","CDISC011",2,"DIABP","Diastolic Blood Pressure","STANDING","90","mmHg","90",90,"mmHg","","","","",2,"SCREENING 2","SCREENING","2012-12-05",-2],
["CDISCPILOT01","VS","CDISC011",3,"DIABP","Diastolic Blood Pressure","STANDING","70","mmHg","70",70,"mmHg","","","Y","",3,"BASELINE","SCREENING","2012-12-07",1],
["CDISCPILOT01","VS","CDISC011",4,"DIABP","Diastolic Blood Pressure","STANDING","80","mmHg","80",80,"mmHg","","","","",4,"WEEK 2","TREATMENT","2012-12-21",15],
["CDISCPILOT01","VS","CDISC011",5,"DIABP","Diastolic Blood Pressure","SUPINE","94","mmHg","94",94,"mmHg","","","",1,5,"WEEK 4","TREATMENT","2013-01-01",26],
["CDISCPILOT01","VS","CDISC011",6,"DIABP","Diastolic Blood Pressure","STANDING","90","mmHg","90",90,"mmHg","","","",2,5,"WEEK 4","TREATMENT","2013-01-01",26],
["CDISCPILOT01","VS","CDISC011",7,"DIABP","Diastolic Blood Pressure","STANDING","88","mmHg","88",88,"mmHg","","","",3,5,"WEEK 4","TREATMENT","2013-01-01",26],
["CDISCPILOT01","VS","CDISC011",8,"DIABP","Diastolic Blood Pressure","SUPINE","70","mmHg","70",70,"mmHg","","","",1,7,"WEEK 6","TREATMENT","2013-01-15",40],
["CDISCPILOT01","VS","CDISC011",9,"DIABP","Diastolic Blood Pressure","STANDING","70","mmHg","70",70,"mmHg","","","",2,7,"WEEK 6","TREATMENT","2013-01-15",40],
["CDISCPILOT01","VS","CDISC011",10,"DIABP","Diastolic Blood Pressure","STANDING","72","mmHg","72",72,"mmHg","","","",3,7,"WEEK 6","TREATMENT","2013-01-15",40],
["CDISCPILOT01","VS","CDISC011",11,"DIABP","Diastolic Blood Pressure","SUPINE","78","mmHg","78",78,"mmHg","","","",1,8,"WEEK 8","TREATMENT","2013-01-29",54],
["CDISCPILOT01","VS","CDISC011",12,"DIABP","Diastolic Blood Pressure","STANDING","80","mmHg","80",80,"mmHg","","","",2,8,"WEEK 8","TREATMENT","2013-01-29",54],
["CDISCPILOT01","VS","CDISC011",13,"DIABP","Diastolic Blood Pressure","STANDING","80","mmHg","80",80,"mmHg","","","",3,8,"WEEK 8","TREATMENT","2013-01-29",54],
["CDISCPILOT01","VS","CDISC011",14,"DIABP","Diastolic Blood Pressure","SUPINE","74","mmHg","74",74,"mmHg","","","",1,9,"WEEK 12","TREATMENT","2013-02-27",83],
["CDISCPILOT01","VS","CDISC011",15,"DIABP","Diastolic Blood Pressure","STANDING","84","mmHg","84",84,"mmHg","","","",2,9,"WEEK 12","TREATMENT","2013-02-27",83],
["CDISCPILOT01","VS","CDISC011",16,"DIABP","Diastolic Blood Pressure","STANDING","84","mmHg","84",84,"mmHg","","","",3,9,"WEEK 12","TREATMENT","2013-02-27",83],
["CDISCPILOT01","VS","CDISC011",17,"DIABP","Diastolic Blood Pressure","SUPINE","78","mmHg","78",78,"mmHg","","","",1,10,"WEEK 16","TREATMENT","2013-03-27",111],
["CDISCPILOT01","VS","CDISC011",18,"DIABP","Diastolic Blood Pressure","STANDING","80","mmHg","80",80,"mmHg","","","",2,10,"WEEK 16","TREATMENT","2013-03-27",111],
["CDISCPILOT01","VS","CDISC011",19,"DIABP","Diastolic Blood Pressure","STANDING","74","mmHg","74",74,"mmHg","","","",3,10,"WEEK 16","TREATMENT","2013-03-27",111],
["CDISCPILOT01","VS","CDISC011",20,"DIABP","Diastolic Blood Pressure","SUPINE","82","mmHg","82",82,"mmHg","","","",1,11,"WEEK 20","TREATMENT","2013-04-23",138],
["CDISCPILOT01","VS","CDISC011",21,"DIABP","Diastolic Blood Pressure","STANDING","80","mmHg","80",80,"mmHg","","","",2,11,"WEEK 20","TREATMENT","2013-04-23",138],
["CDISCPILOT01","VS","CDISC011",22,"DIABP","Diastolic Blood Pressure","STANDING","90","mmHg","90",90,"mmHg","","","",3,11,"WEEK 20","TREATMENT","2013-04-23",138],
["CDISCPILOT01","VS","CDISC011",23,"DIABP","Diastolic Blood Pressure","SUPINE","80","mmHg","80",80,"mmHg","","","",1,12,"WEEK 24","TREATMENT","2013-05-22",167],
["CDISCPILOT01","VS","CDISC011",24,"DIABP","Diastolic Blood Pressure","STANDING","82","mmHg","82",82,"mmHg","","","",2,12,"WEEK 24","TREATMENT","2013-05-22",167],
["CDISCPILOT01","VS","CDISC011",25,"DIABP","Diastolic Blood Pressure","STANDING","80","mmHg","80",80,"mmHg","","","",3,12,"WEEK 24","TREATMENT","2013-05-22",167],
["CDISCPILOT01","VS","CDISC011",26,"DIABP","Diastolic Blood Pressure","SUPINE","78","mmHg","78",78,"mmHg","","","",1,13,"WEEK 26","TREATMENT","2013-06-05",181],
["CDISCPILOT01","VS","CDISC011",27,"DIABP","Diastolic Blood Pressure","STANDING","74","mmHg","74",74,"mmHg","","","",2,13,"WEEK 26","TREATMENT","2013-06-05",181],
["CDISCPILOT01","VS","CDISC011",28,"DIABP","Diastolic Blood Pressure","STANDING","72","mmHg","72",72,"mmHg","","","",3,13,"WEEK 26","TREATMENT","2013-06-05",181],
["CDISCPILOT01","VS","CDISC011",29,"HEIGHT","Height","","075.0","in","190.5",190.5,"cm","","","","",1,"SCREENING 1","SCREENING","2012-11-21",-16],
["CDISCPILOT01","VS","CDISC011",30,"PULSE","Pulse Rate","STANDING","68","beats/min","68",68,"beats/min","","","","",1,"SCREENING 1","SCREENING","2012-11-21",-16],
["CDISCPILOT01","VS","CDISC011",31,"PULSE","Pulse Rate","STANDING","62","beats/min","62",62,"beats/min","","","","",2,"SCREENING 2","SCREENING","2012-12-05",-2],
["CDISCPILOT01","VS","CDISC011",32,"PULSE","Pulse Rate","STANDING","64","beats/min","64",64,"beats/min","","","Y","",3,"BASELINE","SCREENING","2012-12-07",1],
["CDISCPILOT01","VS","CDISC011",33,"PULSE","Pulse Rate","STANDING","70","beats/min","70",70,"beats/min","","","","",4,"WEEK 2","TREATMENT","2012-12-21",15],
["CDISCPILOT01","VS","CDISC011",34,"PULSE","Pulse Rate","SUPINE","64","beats/min","64",64,"beats/min","","","",1,5,"WEEK 4","TREATMENT","2013-01-01",26],
["CDISCPILOT01","VS","CDISC011",35,"PULSE","Pulse Rate","STANDING","68","beats/min","68",68,"beats/min","","","",2,5,"WEEK 4","TREATMENT","2013-01-01",26],
["CDISCPILOT01","VS","CDISC011",36,"PULSE","Pulse Rate","STANDING","84","beats/min","84",84,"beats/min","","","",3,5,"WEEK 4","TREATMENT","2013-01-01",26],
["CDISCPILOT01","VS","CDISC011",37,"PULSE","Pulse Rate","SUPINE","60","beats/min","60",60,"beats/min","","","",1,7,"WEEK 6","TREATMENT","2013-01-15",40],
["CDISCPILOT01","VS","CDISC011",38,"PULSE","Pulse Rate","STANDING","72","beats/min","72",72,"beats/min","","","",2,7,"WEEK 6","TREATMENT","2013-01-15",40],
["CDISCPILOT01","VS","CDISC011",39,"PULSE","Pulse Rate","STANDING","70","beats/min","70",70,"beats/min","","","",3,7,"WEEK 6","TREATMENT","2013-01-15",40],
["CDISCPILOT01","VS","CDISC011",40,"PULSE","Pulse Rate","SUPINE","60","beats/min","60",60,"beats/min","","","",1,8,"WEEK 8","TREATMENT","2013-01-29",54],
["CDISCPILOT01","VS","CDISC011",41,"PULSE","Pulse Rate","STANDING","66","beats/min","66",66,"beats/min","","","",2,8,"WEEK 8","TREATMENT","2013-01-29",54],
["CDISCPILOT01","VS","CDISC011",42,"PULSE","Pulse Rate","STANDING","68","beats/min","68",68,"beats/min","","","",3,8,"WEEK 8","TREATMENT","2013-01-29",54],
["CDISCPILOT01","VS","CDISC011",43,"PULSE","Pulse Rate","SUPINE","64","beats/min","64",64,"beats/min","","","",1,9,"WEEK 12","TREATMENT","2013-02-27",83],
["CDISCPILOT01","VS","CDISC011",44,"PULSE","Pulse Rate","STANDING","84","beats/min","84",84,"beats/min","","","",2,9,"WEEK 12","TREATMENT","2013-02-27",83],
["CDISCPILOT01","VS","CDISC011",45,"PULSE","Pulse Rate","STANDING","80","beats/min","80",80,"beats/min","","","",3,9,"WEEK 12","TREATMENT","2013-02-27",83],
["CDISCPILOT01","VS","CDISC011",46,"PULSE","Pulse Rate","SUPINE","60","beats/min","60",60,"beats/min","","","",1,10,"WEEK 16","TREATMENT","2013-03-27",111],
["CDISCPILOT01","VS","CDISC011",47,"PULSE","Pulse Rate","STANDING","64","beats/min","64",64,"beats/min","","","",2,10,"WEEK 16","TREATMENT","2013-03-27",111],
["CDISCPILOT01","VS","CDISC011",48,"PULSE","Pulse Rate","STANDING","72","beats/min","72",72,"beats/min","","","",3,10,"WEEK 16","TREATMENT","2013-03-27",111],
["CDISCPILOT01","VS","CDISC011",49,"PULSE","Pulse Rate","SUPINE","76","beats/min","76",76,"beats/min","","","",1,11,"WEEK 20","TREATMENT","2013-04-23",138],
["CDISCPILOT01","VS","CDISC011",50,"PULSE","Pulse Rate","STANDING","88","beats/min","88",88,"beats/min","","","",2,11,"WEEK 20","TREATMENT","2013-04-23",138],
["CDISCPILOT01","VS","CDISC011",51,"PULSE","Pulse Rate","STANDING","90","beats/min","90",90,"beats/min","","","",3,11,"WEEK 20","TREATMENT","2013-04-23",138],
["CDISCPILOT01","VS","CDISC011",52,"PULSE","Pulse Rate","SUPINE","80","beats/min","80",80,"beats/min","","","",1,12,"WEEK 24","TREATMENT","2013-05-22",167],
["CDISCPILOT01","VS","CDISC011",53,"PULSE","Pulse Rate","STANDING","84","beats/min","84",84,"beats/min","","","",2,12,"WEEK 24","TREATMENT","2013-05-22",167],
["CDISCPILOT01","VS","CDISC011",54,"PULSE","Pulse Rate","STANDING","84","beats/min","84",84,"beats/min","","","",3,12,"WEEK 24","TREATMENT","2013-05-22",167],
["CDISCPILOT01","VS","CDISC011",55,"PULSE","Pulse Rate","SUPINE","56","beats/min","56",56,"beats/min","","","",1,13,"WEEK 26","TREATMENT","2013-06-05",181],
["CDISCPILOT01","VS","CDISC011",56,"PULSE","Pulse Rate","STANDING","60","beats/min","60",60,"beats/min","","","",2,13,"WEEK 26","TREATMENT","2013-06-05",181],
["CDISCPILOT01","VS","CDISC011",57,"PULSE","Pulse Rate","STANDING","60","beats/min","60",60,"beats/min","","","",3,13,"WEEK 26","TREATMENT","2013-06-05",181],
["CDISCPILOT01","VS","CDISC011",58,"SYSBP","Systolic Blood Pressure","STANDING","140","mmHg","140",140,"mmHg","","","","",1,"SCREENING 1","SCREENING","2012-11-21",-16],
["CDISCPILOT01","VS","CDISC011",59,"SYSBP","Systolic Blood Pressure","STANDING","140","mmHg","140",140,"mmHg","","","","",2,"SCREENING 2","SCREENING","2012-12-05",-2],
["CDISCPILOT01","VS","CDISC011",60,"SYSBP","Systolic Blood Pressure","STANDING","130","mmHg","130",130,"mmHg","","","Y","",3,"BASELINE","SCREENING","2012-12-07",1],
["CDISCPILOT01","VS","CDISC011",61,"SYSBP","Systolic Blood Pressure","STANDING","150","mmHg","150",150,"mmHg","","","","",4,"WEEK 2","TREATMENT","2012-12-21",15],
["CDISCPILOT01","VS","CDISC011",62,"SYSBP","Systolic Blood Pressure","SUPINE","154","mmHg","154",154,"mmHg","","","",1,5,"WEEK 4","TREATMENT","2013-01-01",26],
["CDISCPILOT01","VS","CDISC011",63,"SYSBP","Systolic Blood Pressure","STANDING","134","mmHg","134",134,"mmHg","","","",2,5,"WEEK 4","TREATMENT","2013-01-01",26],
["CDISCPILOT01","VS","CDISC011",64,"SYSBP","Systolic Blood Pressure","STANDING","128","mmHg","128",128,"mmHg","","","",3,5,"WEEK 4","TREATMENT","2013-01-01",26],
["CDISCPILOT01","VS","CDISC011",65,"SYSBP","Systolic Blood Pressure","SUPINE","140","mmHg","140",140,"mmHg","","","",1,7,"WEEK 6","TREATMENT","2013-01-15",40],
["CDISCPILOT01","VS","CDISC011",66,"SYSBP","Systolic Blood Pressure","STANDING","130","mmHg","130",130,"mmHg","","","",2,7,"WEEK 6","TREATMENT","2013-01-15",40],
["CDISCPILOT01","VS","CDISC011",67,"SYSBP","Systolic Blood Pressure","STANDING","130","mmHg","130",130,"mmHg","","","",3,7,"WEEK 6","TREATMENT","2013-01-15",40],
["CDISCPILOT01","VS","CDISC011",68,"SYSBP","Systolic Blood Pressure","SUPINE","144","mmHg","144",144,"mmHg","","","",1,8,"WEEK 8","TREATMENT","2013-01-29",54],
["CDISCPILOT01","VS","CDISC011",69,"SYSBP","Systolic Blood Pressure","STANDING","140","mmHg","140",140,"mmHg","","","",2,8,"WEEK 8","TREATMENT","2013-01-29",54],
["CDISCPILOT01","VS","CDISC011",70,"SYSBP","Systolic Blood Pressure","STANDING","140","mmHg","140",140,"mmHg","","","",3,8,"WEEK 8","TREATMENT","2013-01-29",54],
["CDISCPILOT01","VS","CDISC011",71,"SYSBP","Systolic Blood Pressure","SUPINE","130","mmHg","130",130,"mmHg","","","",1,9,"WEEK 12","TREATMENT","2013-02-27",83],
["CDISCPILOT01","VS","CDISC011",72,"SYSBP","Systolic Blood Pressure","STANDING","124","mmHg","124",124,"mmHg","","","",2,9,"WEEK 12","TREATMENT","2013-02-27",83],
["CDISCPILOT01","VS","CDISC011",73,"SYSBP","Systolic Blood Pressure","STANDING","124","mmHg","124",124,"mmHg","","","",3,9,"WEEK 12","TREATMENT","2013-02-27",83],
["CDISCPILOT01","VS","CDISC011",74,"SYSBP","Systolic Blood Pressure","SUPINE","140","mmHg","140",140,"mmHg","","","",1,10,"WEEK 16","TREATMENT","2013-03-27",111],
["CDISCPILOT01","VS","CDISC011",75,"SYSBP","Systolic Blood Pressure","STANDING","130","mmHg","130",130,"mmHg","","","",2,10,"WEEK 16","TREATMENT","2013-03-27",111],
["CDISCPILOT01","VS","CDISC011",76,"SYSBP","Systolic Blood Pressure","STANDING","130","mmHg","130",130,"mmHg","","","",3,10,"WEEK 16","TREATMENT","2013-03-27",111],
["CDISCPILOT01","VS","CDISC011",77,"SYSBP","Systolic Blood Pressure","SUPINE","140","mmHg","140",140,"mmHg","","","",1,11,"WEEK 20","TREATMENT","2013-04-23",138],
["CDISCPILOT01","VS","CDISC011",78,"SYSBP","Systolic Blood Pressure","STANDING","130","mmHg","130",130,"mmHg","","","",2,11,"WEEK 20","TREATMENT","2013-04-23",138],
["CDISCPILOT01","VS","CDISC011",79,"SYSBP","Systolic Blood Pressure","STANDING","138","mmHg","138",138,"mmHg","","","",3,11,"WEEK 20","TREATMENT","2013-04-23",138],
["CDISCPILOT01","VS","CDISC011",80,"SYSBP","Systolic Blood Pressure","SUPINE","150","mmHg","150",150,"mmHg","","","",1,12,"WEEK 24","TREATMENT","2013-05-22",167],
["CDISCPILOT01","VS","CDISC011",81,"SYSBP","Systolic Blood Pressure","STANDING","130","mmHg","130",130,"mmHg","","","",2,12,"WEEK 24","TREATMENT","2013-05-22",167],
["CDISCPILOT01","VS","CDISC011",82,"SYSBP","Systolic Blood Pressure","STANDING","140","mmHg","140",140,"mmHg","","","",3,12,"WEEK 24","TREATMENT","2013-05-22",167],
["CDISCPILOT01","VS","CDISC011",83,"SYSBP","Systolic Blood Pressure","SUPINE","150","mmHg","150",150,"mmHg","","","",1,13,"WEEK 26","TREATMENT","2013-06-05",181],
["CDISCPILOT01","VS","CDISC011",84,"SYSBP","Systolic Blood Pressure","STANDING","142","mmHg","142",142,"mmHg","","","",2,13,"WEEK 26","TREATMENT","2013-06-05",181],
["CDISCPILOT01","VS","CDISC011",85,"SYSBP","Systolic Blood Pressure","STANDING","134","mmHg","134",134,"mmHg","","","",3,13,"WEEK 26","TREATMENT","2013-06-05",181],
["CDISCPILOT01","VS","CDISC011",86,"TEMP","Temperature","","097.2","F","36.22",36.22,"C","","EAR","","",1,"SCREENING 1","SCREENING","2012-11-21",-16],
["CDISCPILOT01","VS","CDISC011",87,"TEMP","Temperature","","97.0","F","36.11",36.11,"C","","EAR","","",2,"SCREENING 2","SCREENING","2012-12-05",-2],
["CDISCPILOT01","VS","CDISC011",88,"TEMP","Temperature","","097.6","F","36.44",36.44,"C","","EAR","","",3,"BASELINE","SCREENING","2012-12-07",1],
["CDISCPILOT01","VS","CDISC011",89,"TEMP","Temperature","","098.2","F","36.78",36.78,"C","","EAR","","",4,"WEEK 2","TREATMENT","2012-12-21",15],
["CDISCPILOT01","VS","CDISC011",90,"TEMP","Temperature","","097.1","F","36.17",36.17,"C","","EAR","","",5,"WEEK 4","TREATMENT","2013-01-01",26],
["CDISCPILOT01","VS","CDISC011",91,"TEMP","Temperature","","097.3","F","36.28",36.28,"C","","EAR","","",7,"WEEK 6","TREATMENT","2013-01-15",40],
["CDISCPILOT01","VS","CDISC011",92,"TEMP","Temperature","","097.3","F","36.28",36.28,"C","","EAR","","",8,"WEEK 8","TREATMENT","2013-01-29",54],
["CDISCPILOT01","VS","CDISC011",93,"TEMP","Temperature","","097.3","F","36.28",36.28,"C","","EAR","","",9,"WEEK 12","TREATMENT","2013-02-27",83],
["CDISCPILOT01","VS","CDISC011",94,"TEMP","Temperature","","098.3","F","36.83",36.83,"C","","EAR","","",10,"WEEK 16","TREATMENT","2013-03-27",111],
["CDISCPILOT01","VS","CDISC011",95,"TEMP","Temperature","","096.6","F","35.89",35.89,"C","","EAR","","",11,"WEEK 20","TREATMENT","2013-04-23",138],
["CDISCPILOT01","VS","CDISC011",96,"TEMP","Temperature","","097.1","F","36.17",36.17,"C","","EAR","","",12,"WEEK 24","TREATMENT","2013-05-22",167],
["CDISCPILOT01","VS","CDISC011",97,"TEMP","Temperature","","097.8","F","36.56",36.56,"C","","ORAL CAVITY","","",13,"WEEK 26","TREATMENT","2013-06-05",181],
["CDISCPILOT01","VS","CDISC011",98,"WEIGHT","Weight","","194.0","LB","88",88,"kg","","","","",1,"SCREENING 1","SCREENING","2012-11-21",-16],
["CDISCPILOT01","VS","CDISC011",99,"WEIGHT","Weight","","193.0","LB","87.54",87.54,"kg","","","","",3,"BASELINE","SCREENING","2012-12-07",1],
["CDISCPILOT01","VS","CDISC011",100,"WEIGHT","Weight","","193.0","LB","87.54",87.54,"kg","","","","",4,"WEEK 2","TREATMENT","2012-12-21",15],
["CDISCPILOT01","VS","CDISC011",101,"WEIGHT","Weight","","188.0","LB","85.28",85.28,"kg","","","","",5,"WEEK 4","TREATMENT","2013-01-01",26],
["CDISCPILOT01","VS","CDISC011",102,"WEIGHT","Weight","","191.0","LB","86.64",86.64,"kg","","","","",7,"WEEK 6","TREATMENT","2013-01-15",40],
["CDISCPILOT01","VS","CDISC011",103,"WEIGHT","Weight","","190.0","LB","86.18",86.18,"kg","","","","",8,"WEEK 8","TREATMENT","2013-01-29",54],
["CDISCPILOT01","VS","CDISC011",104,"WEIGHT","Weight","","185.0","LB","83.92",83.92,"kg","","","","",9,"WEEK 12","TREATMENT","2013-02-27",83],
["CDISCPILOT01","VS","CDISC011",105,"WEIGHT","Weight","","187.0","LB","84.82",84.82,"kg","","","","",10,"WEEK 16","TREATMENT","2013-03-27",111],
["CDISCPILOT01","VS","CDISC011",106,"WEIGHT","Weight","","185.0","LB","83.92",83.92,"kg","","","","",11,"WEEK 20","TREATMENT","2013-04-23",138],
["CDISCPILOT01","VS","CDISC011",107,"WEIGHT","Weight","","183.0","LB","83.01",83.01,"kg","","","","",12,"WEEK 24","TREATMENT","2013-05-22",167],
["CDISCPILOT01","VS","CDISC011",108,"WEIGHT","Weight","","185.0","LB","83.92",83.92,"kg","","","","",13,"WEEK 26","TREATMENT","2013-06-05",181],
["CDISCPILOT01","VS","CDISC012",1,"DIABP","Diastolic Blood Pressure","SUPINE","78","mmHg","78",78,"mmHg","","","",1,1,"SCREENING 1","SCREENING","2013-08-24",-10],
["CDISCPILOT01","VS","CDISC012",2,"DIABP","Diastolic Blood Pressure","STANDING","58","mmHg","58",58,"mmHg","","","",2,1,"SCREENING 1","SCREENING","2013-08-24",-10],
["CDISCPILOT01","VS","CDISC012",3,"DIABP","Diastolic Blood Pressure","STANDING","80","mmHg","80",80,"mmHg","","","",3,1,"SCREENING 1","SCREENING","2013-08-24",-10],
["CDISCPILOT01","VS","CDISC012",4,"DIABP","Diastolic Blood Pressure","SUPINE","78","mmHg","78",78,"mmHg","","","",1,2,"SCREENING 2","SCREENING","2013-09-01",-2],
["CDISCPILOT01","VS","CDISC012",5,"DIABP","Diastolic Blood Pressure","STANDING","70","mmHg","70",70,"mmHg","","","",2,2,"SCREENING 2","SCREENING","2013-09-01",-2],
["CDISCPILOT01","VS","CDISC012",6,"DIABP","Diastolic Blood Pressure","STANDING","70","mmHg","70",70,"mmHg","","","",3,2,"SCREENING 2","SCREENING","2013-09-01",-2],
["CDISCPILOT01","VS","CDISC012",7,"DIABP","Diastolic Blood Pressure","SUPINE","80","mmHg","80",80,"mmHg","","","",1,3,"BASELINE","SCREENING","2013-09-03",1],
["CDISCPILOT01","VS","CDISC012",8,"DIABP","Diastolic Blood Pressure","STANDING","76","mmHg","76",76,"mmHg","","","",2,3,"BASELINE","SCREENING","2013-09-03",1],
["CDISCPILOT01","VS","CDISC012",9,"DIABP","Diastolic Blood Pressure","STANDING","74","mmHg","74",74,"mmHg","","","Y",3,3,"BASELINE","SCREENING","2013-09-03",1],
["CDISCPILOT01","VS","CDISC012",10,"DIABP","Diastolic Blood Pressure","SUPINE","80","mmHg","80",80,"mmHg","","","",1,4,"WEEK 2","TREATMENT","2013-09-21",19],
["CDISCPILOT01","VS","CDISC012",11,"DIABP","Diastolic Blood Pressure","STANDING","70","mmHg","70",70,"mmHg","","","",2,4,"WEEK 2","TREATMENT","2013-09-21",19],
["CDISCPILOT01","VS","CDISC012",12,"DIABP","Diastolic Blood Pressure","STANDING","72","mmHg","72",72,"mmHg","","","",3,4,"WEEK 2","TREATMENT","2013-09-21",19],
["CDISCPILOT01","VS","CDISC012",13,"DIABP","Diastolic Blood Pressure","SUPINE","84","mmHg","84",84,"mmHg","","","",1,5,"WEEK 4","TREATMENT","2013-10-05",33],
["CDISCPILOT01","VS","CDISC012",14,"DIABP","Diastolic Blood Pressure","STANDING","76","mmHg","76",76,"mmHg","","","",2,5,"WEEK 4","TREATMENT","2013-10-05",33],
["CDISCPILOT01","VS","CDISC012",15,"DIABP","Diastolic Blood Pressure","STANDING","82","mmHg","82",82,"mmHg","","","",3,5,"WEEK 4","TREATMENT","2013-10-05",33],
["CDISCPILOT01","VS","CDISC012",16,"DIABP","Diastolic Blood Pressure","SUPINE","82","mmHg","82",82,"mmHg","","","",1,7,"WEEK 6","TREATMENT","2013-10-19",47],
["CDISCPILOT01","VS","CDISC012",17,"DIABP","Diastolic Blood Pressure","STANDING","78","mmHg","78",78,"mmHg","","","",2,7,"WEEK 6","TREATMENT","2013-10-19",47],
["CDISCPILOT01","VS","CDISC012",18,"DIABP","Diastolic Blood Pressure","STANDING","82","mmHg","82",82,"mmHg","","","",3,7,"WEEK 6","TREATMENT","2013-10-19",47],
["CDISCPILOT01","VS","CDISC012",19,"DIABP","Diastolic Blood Pressure","SUPINE","64","mmHg","64",64,"mmHg","","","",1,8,"WEEK 8","TREATMENT","2013-11-05",64],
["CDISCPILOT01","VS","CDISC012",20,"DIABP","Diastolic Blood Pressure","STANDING","60","mmHg","60",60,"mmHg","","","",2,8,"WEEK 8","TREATMENT","2013-11-05",64],
["CDISCPILOT01","VS","CDISC012",21,"DIABP","Diastolic Blood Pressure","STANDING","60","mmHg","60",60,"mmHg","","","",3,8,"WEEK 8","TREATMENT","2013-11-05",64],
["CDISCPILOT01","VS","CDISC012",22,"DIABP","Diastolic Blood Pressure","SUPINE","68","mmHg","68",68,"mmHg","","","",1,9,"WEEK 12","TREATMENT","2013-12-02",91],
["CDISCPILOT01","VS","CDISC012",23,"DIABP","Diastolic Blood Pressure","STANDING","60","mmHg","60",60,"mmHg","","","",2,9,"WEEK 12","TREATMENT","2013-12-02",91],
["CDISCPILOT01","VS","CDISC012",24,"DIABP","Diastolic Blood Pressure","STANDING","70","mmHg","70",70,"mmHg","","","",3,9,"WEEK 12","TREATMENT","2013-12-02",91],
["CDISCPILOT01","VS","CDISC012",25,"DIABP","Diastolic Blood Pressure","SUPINE","62","mmHg","62",62,"mmHg","","","",1,10,"WEEK 16","TREATMENT","2014-01-12",132],
["CDISCPILOT01","VS","CDISC012",26,"DIABP","Diastolic Blood Pressure","STANDING","80","mmHg","80",80,"mmHg","","","",2,10,"WEEK 16","TREATMENT","2014-01-12",132],
["CDISCPILOT01","VS","CDISC012",27,"DIABP","Diastolic Blood Pressure","STANDING","80","mmHg","80",80,"mmHg","","","",3,10,"WEEK 16","TREATMENT","2014-01-12",132],
["CDISCPILOT01","VS","CDISC012",28,"DIABP","Diastolic Blood Pressure","SUPINE","70","mmHg","70",70,"mmHg","","","",1,11,"WEEK 20","TREATMENT","2014-01-28",148],
["CDISCPILOT01","VS","CDISC012",29,"DIABP","Diastolic Blood Pressure","STANDING","64","mmHg","64",64,"mmHg","","","",2,11,"WEEK 20","TREATMENT","2014-01-28",148],
["CDISCPILOT01","VS","CDISC012",30,"DIABP","Diastolic Blood Pressure","STANDING","60","mmHg","60",60,"mmHg","","","",3,11,"WEEK 20","TREATMENT","2014-01-28",148],
["CDISCPILOT01","VS","CDISC012",31,"HEIGHT","Height","","067.0","in","170.18",170.18,"cm","","","","",1,"SCREENING 1","SCREENING","2013-08-24",-10],
["CDISCPILOT01","VS","CDISC012",32,"PULSE","Pulse Rate","SUPINE","68","beats/min","68",68,"beats/min","","","",1,1,"SCREENING 1","SCREENING","2013-08-24",-10],
["CDISCPILOT01","VS","CDISC012",33,"PULSE","Pulse Rate","STANDING","76","beats/min","76",76,"beats/min","","","",2,1,"SCREENING 1","SCREENING","2013-08-24",-10],
["CDISCPILOT01","VS","CDISC012",34,"PULSE","Pulse Rate","STANDING","80","beats/min","80",80,"beats/min","","","",3,1,"SCREENING 1","SCREENING","2013-08-24",-10],
["CDISCPILOT01","VS","CDISC012",35,"PULSE","Pulse Rate","SUPINE","64","beats/min","64",64,"beats/min","","","",1,2,"SCREENING 2","SCREENING","2013-09-01",-2],
["CDISCPILOT01","VS","CDISC012",36,"PULSE","Pulse Rate","STANDING","60","beats/min","60",60,"beats/min","","","",2,2,"SCREENING 2","SCREENING","2013-09-01",-2],
["CDISCPILOT01","VS","CDISC012",37,"PULSE","Pulse Rate","STANDING","68","beats/min","68",68,"beats/min","","","",3,2,"SCREENING 2","SCREENING","2013-09-01",-2],
["CDISCPILOT01","VS","CDISC012",38,"PULSE","Pulse Rate","SUPINE","66","beats/min","66",66,"beats/min","","","",1,3,"BASELINE","SCREENING","2013-09-03",1],
["CDISCPILOT01","VS","CDISC012",39,"PULSE","Pulse Rate","STANDING","72","beats/min","72",72,"beats/min","","","",2,3,"BASELINE","SCREENING","2013-09-03",1],
["CDISCPILOT01","VS","CDISC012",40,"PULSE","Pulse Rate","STANDING","72","beats/min","72",72,"beats/min","","","Y",3,3,"BASELINE","SCREENING","2013-09-03",1],
["CDISCPILOT01","VS","CDISC012",41,"PULSE","Pulse Rate","SUPINE","60","beats/min","60",60,"beats/min","","","",1,4,"WEEK 2","TREATMENT","2013-09-21",19],
["CDISCPILOT01","VS","CDISC012",42,"PULSE","Pulse Rate","STANDING","64","beats/min","64",64,"beats/min","","","",2,4,"WEEK 2","TREATMENT","2013-09-21",19],
["CDISCPILOT01","VS","CDISC012",43,"PULSE","Pulse Rate","STANDING","64","beats/min","64",64,"beats/min","","","",3,4,"WEEK 2","TREATMENT","2013-09-21",19],
["CDISCPILOT01","VS","CDISC012",44,"PULSE","Pulse Rate","SUPINE","64","beats/min","64",64,"beats/min","","","",1,5,"WEEK 4","TREATMENT","2013-10-05",33],
["CDISCPILOT01","VS","CDISC012",45,"PULSE","Pulse Rate","STANDING","72","beats/min","72",72,"beats/min","","","",2,5,"WEEK 4","TREATMENT","2013-10-05",33],
["CDISCPILOT01","VS","CDISC012",46,"PULSE","Pulse Rate","STANDING","64","beats/min","64",64,"beats/min","","","",3,5,"WEEK 4","TREATMENT","2013-10-05",33],
["CDISCPILOT01","VS","CDISC012",47,"PULSE","Pulse Rate","SUPINE","60","beats/min","60",60,"beats/min","","","",1,7,"WEEK 6","TREATMENT","2013-10-19",47],
["CDISCPILOT01","VS","CDISC012",48,"PULSE","Pulse Rate","STANDING","68","beats/min","68",68,"beats/min","","","",2,7,"WEEK 6","TREATMENT","2013-10-19",47],
["CDISCPILOT01","VS","CDISC012",49,"PULSE","Pulse Rate","STANDING","72","beats/min","72",72,"beats/min","","","",3,7,"WEEK 6","TREATMENT","2013-10-19",47],
["CDISCPILOT01","VS","CDISC012",50,"PULSE","Pulse Rate","SUPINE","60","beats/min","60",60,"beats/min","","","",1,8,"WEEK 8","TREATMENT","2013-11-05",64],
["CDISCPILOT01","VS","CDISC012",51,"PULSE","Pulse Rate","STANDING","64","beats/min","64",64,"beats/min","","","",2,8,"WEEK 8","TREATMENT","2013-11-05",64],
["CDISCPILOT01","VS","CDISC012",52,"PULSE","Pulse Rate","STANDING","68","beats/min","68",68,"beats/min","","","",3,8,"WEEK 8","TREATMENT","2013-11-05",64],
["CDISCPILOT01","VS","CDISC012",53,"PULSE","Pulse Rate","SUPINE","60","beats/min","60",60,"beats/min","","","",1,9,"WEEK 12","TREATMENT","2013-12-02",91],
["CDISCPILOT01","VS","CDISC012",54,"PULSE","Pulse Rate","STANDING","60","beats/min","60",60,"beats/min","","","",2,9,"WEEK 12","TREATMENT","2013-12-02",91],
["CDISCPILOT01","VS","CDISC012",55,"PULSE","Pulse Rate","STANDING","60","beats/min","60",60,"beats/min","","","",3,9,"WEEK 12","TREATMENT","2013-12-02",91],
["CDISCPILOT01","VS","CDISC012",56,"PULSE","Pulse Rate","SUPINE","64","beats/min","64",64,"beats/min","","","",1,10,"WEEK 16","TREATMENT","2014-01-12",132],
["CDISCPILOT01","VS","CDISC012",57,"PULSE","Pulse Rate","STANDING","68","beats/min","68",68,"beats/min","","","",2,10,"WEEK 16","TREATMENT","2014-01-12",132],
["CDISCPILOT01","VS","CDISC012",58,"PULSE","Pulse Rate","STANDING","64","beats/min","64",64,"beats/min","","","",3,10,"WEEK 16","TREATMENT","2014-01-12",132],
["CDISCPILOT01","VS","CDISC012",59,"PULSE","Pulse Rate","SUPINE","55","beats/min","55",55,"beats/min","","","",1,11,"WEEK 20","TREATMENT","2014-01-28",148],
["CDISCPILOT01","VS","CDISC012",60,"PULSE","Pulse Rate","STANDING","64","beats/min","64",64,"beats/min","","","",2,11,"WEEK 20","TREATMENT","2014-01-28",148],
["CDISCPILOT01","VS","CDISC012",61,"PULSE","Pulse Rate","STANDING","62","beats/min","62",62,"beats/min","","","",3,11,"WEEK 20","TREATMENT","2014-01-28",148],
["CDISCPILOT01","VS","CDISC012",62,"SYSBP","Systolic Blood Pressure","SUPINE","120","mmHg","120",120,"mmHg","","","",1,1,"SCREENING 1","SCREENING","2013-08-24",-10],
["CDISCPILOT01","VS","CDISC012",63,"SYSBP","Systolic Blood Pressure","STANDING","90","mmHg","90",90,"mmHg","","","",2,1,"SCREENING 1","SCREENING","2013-08-24",-10],
["CDISCPILOT01","VS","CDISC012",64,"SYSBP","Systolic Blood Pressure","STANDING","120","mmHg","120",120,"mmHg","","","",3,1,"SCREENING 1","SCREENING","2013-08-24",-10],
["CDISCPILOT01","VS","CDISC012",65,"SYSBP","Systolic Blood Pressure","SUPINE","120","mmHg","120",120,"mmHg","","","",1,2,"SCREENING 2","SCREENING","2013-09-01",-2],
["CDISCPILOT01","VS","CDISC012",66,"SYSBP","Systolic Blood Pressure","STANDING","120","mmHg","120",120,"mmHg","","","",2,2,"SCREENING 2","SCREENING","2013-09-01",-2],
["CDISCPILOT01","VS","CDISC012",67,"SYSBP","Systolic Blood Pressure","STANDING","120","mmHg","120",120,"mmHg","","","",3,2,"SCREENING 2","SCREENING","2013-09-01",-2],
["CDISCPILOT01","VS","CDISC012",68,"SYSBP","Systolic Blood Pressure","SUPINE","122","mmHg","122",122,"mmHg","","","",1,3,"BASELINE","SCREENING","2013-09-03",1],
["CDISCPILOT01","VS","CDISC012",69,"SYSBP","Systolic Blood Pressure","STANDING","110","mmHg","110",110,"mmHg","","","",2,3,"BASELINE","SCREENING","2013-09-03",1],
["CDISCPILOT01","VS","CDISC012",70,"SYSBP","Systolic Blood Pressure","STANDING","112","mmHg","112",112,"mmHg","","","Y",3,3,"BASELINE","SCREENING","2013-09-03",1],
["CDISCPILOT01","VS","CDISC012",71,"SYSBP","Systolic Blood Pressure","SUPINE","110","mmHg","110",110,"mmHg","","","",1,4,"WEEK 2","TREATMENT","2013-09-21",19],
["CDISCPILOT01","VS","CDISC012",72,"SYSBP","Systolic Blood Pressure","STANDING","110","mmHg","110",110,"mmHg","","","",2,4,"WEEK 2","TREATMENT","2013-09-21",19],
["CDISCPILOT01","VS","CDISC012",73,"SYSBP","Systolic Blood Pressure","STANDING","110","mmHg","110",110,"mmHg","","","",3,4,"WEEK 2","TREATMENT","2013-09-21",19],
["CDISCPILOT01","VS","CDISC012",74,"SYSBP","Systolic Blood Pressure","SUPINE","124","mmHg","124",124,"mmHg","","","",1,5,"WEEK 4","TREATMENT","2013-10-05",33],
["CDISCPILOT01","VS","CDISC012",75,"SYSBP","Systolic Blood Pressure","STANDING","116","mmHg","116",116,"mmHg","","","",2,5,"WEEK 4","TREATMENT","2013-10-05",33],
["CDISCPILOT01","VS","CDISC012",76,"SYSBP","Systolic Blood Pressure","STANDING","120","mmHg","120",120,"mmHg","","","",3,5,"WEEK 4","TREATMENT","2013-10-05",33],
["CDISCPILOT01","VS","CDISC012",77,"SYSBP","Systolic Blood Pressure","SUPINE","120","mmHg","120",120,"mmHg","","","",1,7,"WEEK 6","TREATMENT","2013-10-19",47],
["CDISCPILOT01","VS","CDISC012",78,"SYSBP","Systolic Blood Pressure","STANDING","118","mmHg","118",118,"mmHg","","","",2,7,"WEEK 6","TREATMENT","2013-10-19",47],
["CDISCPILOT01","VS","CDISC012",79,"SYSBP","Systolic Blood Pressure","STANDING","120","mmHg","120",120,"mmHg","","","",3,7,"WEEK 6","TREATMENT","2013-10-19",47],
["CDISCPILOT01","VS","CDISC012",80,"SYSBP","Systolic Blood Pressure","SUPINE","120","mmHg","120",120,"mmHg","","","",1,8,"WEEK 8","TREATMENT","2013-11-05",64],
["CDISCPILOT01","VS","CDISC012",81,"SYSBP","Systolic Blood Pressure","STANDING","110","mmHg","110",110,"mmHg","","","",2,8,"WEEK 8","TREATMENT","2013-11-05",64],
["CDISCPILOT01","VS","CDISC012",82,"SYSBP","Systolic Blood Pressure","STANDING","110","mmHg","110",110,"mmHg","","","",3,8,"WEEK 8","TREATMENT","2013-11-05",64],
["CDISCPILOT01","VS","CDISC012",83,"SYSBP","Systolic Blood Pressure","SUPINE","118","mmHg","118",118,"mmHg","","","",1,9,"WEEK 12","TREATMENT","2013-12-02",91],
["CDISCPILOT01","VS","CDISC012",84,"SYSBP","Systolic Blood Pressure","STANDING","112","mmHg","112",112,"mmHg","","","",2,9,"WEEK 12","TREATMENT","2013-12-02",91],
["CDISCPILOT01","VS","CDISC012",85,"SYSBP","Systolic Blood Pressure","STANDING","122","mmHg","122",122,"mmHg","","","",3,9,"WEEK 12","TREATMENT","2013-12-02",91],
["CDISCPILOT01","VS","CDISC012",86,"SYSBP","Systolic Blood Pressure","SUPINE","110","mmHg","110",110,"mmHg","","","",1,10,"WEEK 16","TREATMENT","2014-01-12",132],
["CDISCPILOT01","VS","CDISC012",87,"SYSBP","Systolic Blood Pressure","STANDING","108","mmHg","108",108,"mmHg","","","",2,10,"WEEK 16","TREATMENT","2014-01-12",132],
["CDISCPILOT01","VS","CDISC012",88,"SYSBP","Systolic Blood Pressure","STANDING","116","mmHg","116",116,"mmHg","","","",3,10,"WEEK 16","TREATMENT","2014-01-12",132],
["CDISCPILOT01","VS","CDISC012",89,"SYSBP","Systolic Blood Pressure","SUPINE","100","mmHg","100",100,"mmHg","","","",1,11,"WEEK 20","TREATMENT","2014-01-28",148],
["CDISCPILOT01","VS","CDISC012",90,"SYSBP","Systolic Blood Pressure","STANDING","124","mmHg","124",124,"mmHg","","","",2,11,"WEEK 20","TREATMENT","2014-01-28",148],
["CDISCPILOT01","VS","CDISC012",91,"SYSBP","Systolic Blood Pressure","STANDING","90","mmHg","90",90,"mmHg","","","",3,11,"WEEK 20","TREATMENT","2014-01-28",148],
["CDISCPILOT01","VS","CDISC012",92,"TEMP","Temperature","","097.6","F","36.44",36.44,"C","","EAR","","",1,"SCREENING 1","SCREENING","2013-08-24",-10],
["CDISCPILOT01","VS","CDISC012",93,"TEMP","Temperature","","096.1","F","35.61",35.61,"C","","EAR","","",2,"SCREENING 2","SCREENING","2013-09-01",-2],
["CDISCPILOT01","VS","CDISC012",94,"TEMP","Temperature","","097.1","F","36.17",36.17,"C","","EAR","","",3,"BASELINE","SCREENING","2013-09-03",1],
["CDISCPILOT01","VS","CDISC012",95,"TEMP","Temperature","","097.9","F","36.61",36.61,"C","","EAR","","",4,"WEEK 2","TREATMENT","2013-09-21",19],
["CDISCPILOT01","VS","CDISC012",96,"TEMP","Temperature","","097.3","F","36.28",36.28,"C","","EAR","","",5,"WEEK 4","TREATMENT","2013-10-05",33],
["CDISCPILOT01","VS","CDISC012",97,"TEMP","Temperature","","098.0","F","36.67",36.67,"C","","EAR","","",7,"WEEK 6","TREATMENT","2013-10-19",47],
["CDISCPILOT01","VS","CDISC012",98,"TEMP","Temperature","","097.0","F","36.11",36.11,"C","","EAR","","",8,"WEEK 8","TREATMENT","2013-11-05",64],
["CDISCPILOT01","VS","CDISC012",99,"TEMP","Temperature","","098.8","F","37.11",37.11,"C","","EAR","","",9,"WEEK 12","TREATMENT","2013-12-02",91],
["CDISCPILOT01","VS","CDISC012",100,"TEMP","Temperature","","097.3","F","36.28",36.28,"C","","EAR","","",10,"WEEK 16","TREATMENT","2014-01-12",132],
["CDISCPILOT01","VS","CDISC012",101,"TEMP","Temperature","","096.6","F","35.89",35.89,"C","","EAR","","",11,"WEEK 20","TREATMENT","2014-01-28",148],
["CDISCPILOT01","VS","CDISC012",102,"WEIGHT","Weight","","157.0","LB","71.22",71.22,"kg","","","","",1,"SCREENING 1","SCREENING","2013-08-24",-10],
["CDISCPILOT01","VS","CDISC012",103,"WEIGHT","Weight","","155.0","LB","70.31",70.31,"kg","","","","",3,"BASELINE","SCREENING","2013-09-03",1],
["CDISCPILOT01","VS","CDISC012",104,"WEIGHT","Weight","","158.0","LB","71.67",71.67,"kg","","","","",4,"WEEK 2","TREATMENT","2013-09-21",19],
["CDISCPILOT01","VS","CDISC012",105,"WEIGHT","Weight","","158.0","LB","71.67",71.67,"kg","","","","",5,"WEEK 4","TREATMENT","2013-10-05",33],
["CDISCPILOT01","VS","CDISC012",106,"WEIGHT","Weight","","156.0","LB","70.76",70.76,"kg","","","","",7,"WEEK 6","TREATMENT","2013-10-19",47],
["CDISCPILOT01","VS","CDISC012",107,"WEIGHT","Weight","","155.0","LB","70.31",70.31,"kg","","","","",8,"WEEK 8","TREATMENT","2013-11-05",64],
["CDISCPILOT01","VS","CDISC012",108,"WEIGHT","Weight","","155.0","LB","70.31",70.31,"kg","","","","",9,"WEEK 12","TREATMENT","2013-12-02",91],
["CDISCPILOT01","VS","CDISC012",109,"WEIGHT","Weight","","154.0","LB","69.85",69.85,"kg","","","","",10,"WEEK 16","TREATMENT","2014-01-12",132],
["CDISCPILOT01","VS","CDISC012",110,"WEIGHT","Weight","","151.0","LB","68.49",68.49,"kg","","","","",11,"WEEK 20","TREATMENT","2014-01-28",148],
["CDISCPILOT01","VS","CDISC013",1,"DIABP","Diastolic Blood Pressure","SUPINE","90","mmHg","90",90,"mmHg","","","",1,1,"SCREENING 1","SCREENING","2013-07-09",-13],
["CDISCPILOT01","VS","CDISC013",2,"DIABP","Diastolic Blood Pressure","STANDING","90","mmHg","90",90,"mmHg","","","",2,1,"SCREENING 1","SCREENING","2013-07-09",-13],
["CDISCPILOT01","VS","CDISC013",3,"DIABP","Diastolic Blood Pressure","STANDING","92","mmHg","92",92,"mmHg","","","",3,1,"SCREENING 1","SCREENING","2013-07-09",-13],
["CDISCPILOT01","VS","CDISC013",4,"DIABP","Diastolic Blood Pressure","SUPINE","76","mmHg","76",76,"mmHg","","","",1,2,"SCREENING 2","SCREENING","2013-07-20",-2],
["CDISCPILOT01","VS","CDISC013",5,"DIABP","Diastolic Blood Pressure","STANDING","80","mmHg","80",80,"mmHg","","","",2,2,"SCREENING 2","SCREENING","2013-07-20",-2],
["CDISCPILOT01","VS","CDISC013",6,"DIABP","Diastolic Blood Pressure","STANDING","78","mmHg","78",78,"mmHg","","","",3,2,"SCREENING 2","SCREENING","2013-07-20",-2],
["CDISCPILOT01","VS","CDISC013",7,"DIABP","Diastolic Blood Pressure","SUPINE","70","mmHg","70",70,"mmHg","","","",1,3,"BASELINE","SCREENING","2013-07-22",1],
["CDISCPILOT01","VS","CDISC013",8,"DIABP","Diastolic Blood Pressure","STANDING","80","mmHg","80",80,"mmHg","","","",2,3,"BASELINE","SCREENING","2013-07-22",1],
["CDISCPILOT01","VS","CDISC013",9,"DIABP","Diastolic Blood Pressure","STANDING","78","mmHg","78",78,"mmHg","","","Y",3,3,"BASELINE","SCREENING","2013-07-22",1],
["CDISCPILOT01","VS","CDISC013",10,"HEIGHT","Height","","062.0","in","157.48",157.48,"cm","","","","",1,"SCREENING 1","SCREENING","2013-07-09",-13],
["CDISCPILOT01","VS","CDISC013",11,"PULSE","Pulse Rate","SUPINE","76","beats/min","76",76,"beats/min","","","",1,1,"SCREENING 1","SCREENING","2013-07-09",-13],
["CDISCPILOT01","VS","CDISC013",12,"PULSE","Pulse Rate","STANDING","76","beats/min","76",76,"beats/min","","","",2,1,"SCREENING 1","SCREENING","2013-07-09",-13],
["CDISCPILOT01","VS","CDISC013",13,"PULSE","Pulse Rate","STANDING","72","beats/min","72",72,"beats/min","","","",3,1,"SCREENING 1","SCREENING","2013-07-09",-13],
["CDISCPILOT01","VS","CDISC013",14,"PULSE","Pulse Rate","SUPINE","72","beats/min","72",72,"beats/min","","","",1,2,"SCREENING 2","SCREENING","2013-07-20",-2],
["CDISCPILOT01","VS","CDISC013",15,"PULSE","Pulse Rate","STANDING","68","beats/min","68",68,"beats/min","","","",2,2,"SCREENING 2","SCREENING","2013-07-20",-2],
["CDISCPILOT01","VS","CDISC013",16,"PULSE","Pulse Rate","STANDING","68","beats/min","68",68,"beats/min","","","",3,2,"SCREENING 2","SCREENING","2013-07-20",-2],
["CDISCPILOT01","VS","CDISC013",17,"PULSE","Pulse Rate","SUPINE","88","beats/min","88",88,"beats/min","","","",1,3,"BASELINE","SCREENING","2013-07-22",1],
["CDISCPILOT01","VS","CDISC013",18,"PULSE","Pulse Rate","STANDING","84","beats/min","84",84,"beats/min","","","",2,3,"BASELINE","SCREENING","2013-07-22",1],
["CDISCPILOT01","VS","CDISC013",19,"PULSE","Pulse Rate","STANDING","84","beats/min","84",84,"beats/min","","","Y",3,3,"BASELINE","SCREENING","2013-07-22",1],
["CDISCPILOT01","VS","CDISC013",20,"SYSBP","Systolic Blood Pressure","SUPINE","160","mmHg","160",160,"mmHg","","","",1,1,"SCREENING 1","SCREENING","2013-07-09",-13],
["CDISCPILOT01","VS","CDISC013",21,"SYSBP","Systolic Blood Pressure","STANDING","154","mmHg","154",154,"mmHg","","","",2,1,"SCREENING 1","SCREENING","2013-07-09",-13],
["CDISCPILOT01","VS","CDISC013",22,"SYSBP","Systolic Blood Pressure","STANDING","152","mmHg","152",152,"mmHg","","","",3,1,"SCREENING 1","SCREENING","2013-07-09",-13],
["CDISCPILOT01","VS","CDISC013",23,"SYSBP","Systolic Blood Pressure","SUPINE","142","mmHg","142",142,"mmHg","","","",1,2,"SCREENING 2","SCREENING","2013-07-20",-2],
["CDISCPILOT01","VS","CDISC013",24,"SYSBP","Systolic Blood Pressure","STANDING","150","mmHg","150",150,"mmHg","","","",2,2,"SCREENING 2","SCREENING","2013-07-20",-2],
["CDISCPILOT01","VS","CDISC013",25,"SYSBP","Systolic Blood Pressure","STANDING","146","mmHg","146",146,"mmHg","","","",3,2,"SCREENING 2","SCREENING","2013-07-20",-2],
["CDISCPILOT01","VS","CDISC013",26,"SYSBP","Systolic Blood Pressure","SUPINE","148","mmHg","148",148,"mmHg","","","",1,3,"BASELINE","SCREENING","2013-07-22",1],
["CDISCPILOT01","VS","CDISC013",27,"SYSBP","Systolic Blood Pressure","STANDING","140","mmHg","140",140,"mmHg","","","",2,3,"BASELINE","SCREENING","2013-07-22",1],
["CDISCPILOT01","VS","CDISC013",28,"SYSBP","Systolic Blood Pressure","STANDING","144","mmHg","144",144,"mmHg","","","Y",3,3,"BASELINE","SCREENING","2013-07-22",1],
["CDISCPILOT01","VS","CDISC013",29,"TEMP","Temperature","","098.6","F","37",37,"C","","ORAL CAVITY","","",1,"SCREENING 1","SCREENING","2013-07-09",-13],
["CDISCPILOT01","VS","CDISC013",30,"TEMP","Temperature","","098.6","F","37",37,"C","","ORAL CAVITY","","",2,"SCREENING 2","SCREENING","2013-07-20",-2],
["CDISCPILOT01","VS","CDISC013",31,"TEMP","Temperature","","098.4","F","36.89",36.89,"C","","ORAL CAVITY","","",3,"BASELINE","SCREENING","2013-07-22",1],
["CDISCPILOT01","VS","CDISC013",32,"WEIGHT","Weight","","105.0","LB","47.63",47.63,"kg","","","","",1,"SCREENING 1","SCREENING","2013-07-09",-13],
["CDISCPILOT01","VS","CDISC013",33,"WEIGHT","Weight","","104.0","LB","47.17",47.17,"kg","","","","",3,"BASELINE","SCREENING","2013-07-22",1],
["CDISCPILOT01","VS","CDISC014",1,"DIABP","Diastolic Blood Pressure","SUPINE","076","mmHg","76",76,"mmHg","","","",1,1,"SCREENING 1","SCREENING","2013-03-20",-14],
["CDISCPILOT01","VS","CDISC014",2,"DIABP","Diastolic Blood Pressure","STANDING","072","mmHg","72",72,"mmHg","","","",2,1,"SCREENING 1","SCREENING","2013-03-20",-14],
["CDISCPILOT01","VS","CDISC014",3,"DIABP","Diastolic Blood Pressure","STANDING","076","mmHg","76",76,"mmHg","","","",3,1,"SCREENING 1","SCREENING","2013-03-20",-14],
["CDISCPILOT01","VS","CDISC014",4,"DIABP","Diastolic Blood Pressure","SUPINE","078","mmHg","78",78,"mmHg","","","",1,2,"SCREENING 2","SCREENING","2013-04-01",-2],
["CDISCPILOT01","VS","CDISC014",5,"DIABP","Diastolic Blood Pressure","STANDING","066","mmHg","66",66,"mmHg","","","",2,2,"SCREENING 2","SCREENING","2013-04-01",-2],
["CDISCPILOT01","VS","CDISC014",6,"DIABP","Diastolic Blood Pressure","STANDING","066","mmHg","66",66,"mmHg","","","",3,2,"SCREENING 2","SCREENING","2013-04-01",-2],
["CDISCPILOT01","VS","CDISC014",7,"DIABP","Diastolic Blood Pressure","SUPINE","080","mmHg","80",80,"mmHg","","","",1,3,"BASELINE","SCREENING","2013-04-03",1],
["CDISCPILOT01","VS","CDISC014",8,"DIABP","Diastolic Blood Pressure","STANDING","078","mmHg","78",78,"mmHg","","","",2,3,"BASELINE","SCREENING","2013-04-03",1],
["CDISCPILOT01","VS","CDISC014",9,"DIABP","Diastolic Blood Pressure","STANDING","082","mmHg","82",82,"mmHg","","","Y",3,3,"BASELINE","SCREENING","2013-04-03",1],
["CDISCPILOT01","VS","CDISC014",10,"DIABP","Diastolic Blood Pressure","SUPINE","080","mmHg","80",80,"mmHg","","","",1,4,"WEEK 2","TREATMENT","2013-04-17",15],
["CDISCPILOT01","VS","CDISC014",11,"DIABP","Diastolic Blood Pressure","STANDING","074","mmHg","74",74,"mmHg","","","",2,4,"WEEK 2","TREATMENT","2013-04-17",15],
["CDISCPILOT01","VS","CDISC014",12,"DIABP","Diastolic Blood Pressure","STANDING","078","mmHg","78",78,"mmHg","","","",3,4,"WEEK 2","TREATMENT","2013-04-17",15],
["CDISCPILOT01","VS","CDISC014",13,"DIABP","Diastolic Blood Pressure","SUPINE","070","mmHg","70",70,"mmHg","","","",1,5,"WEEK 4","TREATMENT","2013-05-02",30],
["CDISCPILOT01","VS","CDISC014",14,"DIABP","Diastolic Blood Pressure","STANDING","068","mmHg","68",68,"mmHg","","","",2,5,"WEEK 4","TREATMENT","2013-05-02",30],
["CDISCPILOT01","VS","CDISC014",15,"DIABP","Diastolic Blood Pressure","STANDING","066","mmHg","66",66,"mmHg","","","",3,5,"WEEK 4","TREATMENT","2013-05-02",30],
["CDISCPILOT01","VS","CDISC014",16,"DIABP","Diastolic Blood Pressure","SUPINE","082","mmHg","82",82,"mmHg","","","",1,201,"EARLY DISCONTINUATION RETRIEVAL","TREATMENT","2013-09-18",169],
["CDISCPILOT01","VS","CDISC014",17,"DIABP","Diastolic Blood Pressure","STANDING","074","mmHg","74",74,"mmHg","","","",2,201,"EARLY DISCONTINUATION RETRIEVAL","TREATMENT","2013-09-18",169],
["CDISCPILOT01","VS","CDISC014",18,"DIABP","Diastolic Blood Pressure","STANDING","068","mmHg","68",68,"mmHg","","","",3,201,"EARLY DISCONTINUATION RETRIEVAL","TREATMENT","2013-09-18",169],
["CDISCPILOT01","VS","CDISC014",19,"HEIGHT","Height","","067.0","in","170.18",170.18,"cm","","","","",1,"SCREENING 1","SCREENING","2013-03-20",-14],
["CDISCPILOT01","VS","CDISC014",20,"PULSE","Pulse Rate","SUPINE","89","beats/min","89",89,"beats/min","","","",1,1,"SCREENING 1","SCREENING","2013-03-20",-14],
["CDISCPILOT01","VS","CDISC014",21,"PULSE","Pulse Rate","STANDING","84","beats/min","84",84,"beats/min","","","",2,1,"SCREENING 1","SCREENING","2013-03-20",-14],
["CDISCPILOT01","VS","CDISC014",22,"PULSE","Pulse Rate","STANDING","87","beats/min","87",87,"beats/min","","","",3,1,"SCREENING 1","SCREENING","2013-03-20",-14],
["CDISCPILOT01","VS","CDISC014",23,"PULSE","Pulse Rate","SUPINE","064","beats/min","64",64,"beats/min","","","",1,2,"SCREENING 2","SCREENING","2013-04-01",-2],
["CDISCPILOT01","VS","CDISC014",24,"PULSE","Pulse Rate","STANDING","080","beats/min","80",80,"beats/min","","","",2,2,"SCREENING 2","SCREENING","2013-04-01",-2],
["CDISCPILOT01","VS","CDISC014",25,"PULSE","Pulse Rate","STANDING","080","beats/min","80",80,"beats/min","","","",3,2,"SCREENING 2","SCREENING","2013-04-01",-2],
["CDISCPILOT01","VS","CDISC014",26,"PULSE","Pulse Rate","SUPINE","080","beats/min","80",80,"beats/min","","","",1,3,"BASELINE","SCREENING","2013-04-03",1],
["CDISCPILOT01","VS","CDISC014",27,"PULSE","Pulse Rate","STANDING","092","beats/min","92",92,"beats/min","","","",2,3,"BASELINE","SCREENING","2013-04-03",1],
["CDISCPILOT01","VS","CDISC014",28,"PULSE","Pulse Rate","STANDING","088","beats/min","88",88,"beats/min","","","Y",3,3,"BASELINE","SCREENING","2013-04-03",1],
["CDISCPILOT01","VS","CDISC014",29,"PULSE","Pulse Rate","SUPINE","084","beats/min","84",84,"beats/min","","","",1,4,"WEEK 2","TREATMENT","2013-04-17",15],
["CDISCPILOT01","VS","CDISC014",30,"PULSE","Pulse Rate","STANDING","092","beats/min","92",92,"beats/min","","","",2,4,"WEEK 2","TREATMENT","2013-04-17",15],
["CDISCPILOT01","VS","CDISC014",31,"PULSE","Pulse Rate","STANDING","092","beats/min","92",92,"beats/min","","","",3,4,"WEEK 2","TREATMENT","2013-04-17",15],
["CDISCPILOT01","VS","CDISC014",32,"PULSE","Pulse Rate","SUPINE","064","beats/min","64",64,"beats/min","","","",1,5,"WEEK 4","TREATMENT","2013-05-02",30],
["CDISCPILOT01","VS","CDISC014",33,"PULSE","Pulse Rate","STANDING","072","beats/min","72",72,"beats/min","","","",2,5,"WEEK 4","TREATMENT","2013-05-02",30],
["CDISCPILOT01","VS","CDISC014",34,"PULSE","Pulse Rate","STANDING","076","beats/min","76",76,"beats/min","","","",3,5,"WEEK 4","TREATMENT","2013-05-02",30],
["CDISCPILOT01","VS","CDISC014",35,"PULSE","Pulse Rate","SUPINE","068","beats/min","68",68,"beats/min","","","",1,201,"EARLY DISCONTINUATION RETRIEVAL","TREATMENT","2013-09-18",169],
["CDISCPILOT01","VS","CDISC014",36,"PULSE","Pulse Rate","STANDING","064","beats/min","64",64,"beats/min","","","",2,201,"EARLY DISCONTINUATION RETRIEVAL","TREATMENT","2013-09-18",169],
["CDISCPILOT01","VS","CDISC014",37,"PULSE","Pulse Rate","STANDING","064","beats/min","64",64,"beats/min","","","",3,201,"EARLY DISCONTINUATION RETRIEVAL","TREATMENT","2013-09-18",169],
["CDISCPILOT01","VS","CDISC014",38,"SYSBP","Systolic Blood Pressure","SUPINE","160","mmHg","160",160,"mmHg","","","",1,1,"SCREENING 1","SCREENING","2013-03-20",-14],
["CDISCPILOT01","VS","CDISC014",39,"SYSBP","Systolic Blood Pressure","STANDING","122","mmHg","122",122,"mmHg","","","",2,1,"SCREENING 1","SCREENING","2013-03-20",-14],
["CDISCPILOT01","VS","CDISC014",40,"SYSBP","Systolic Blood Pressure","STANDING","140","mmHg","140",140,"mmHg","","","",3,1,"SCREENING 1","SCREENING","2013-03-20",-14],
["CDISCPILOT01","VS","CDISC014",41,"SYSBP","Systolic Blood Pressure","SUPINE","160","mmHg","160",160,"mmHg","","","",1,2,"SCREENING 2","SCREENING","2013-04-01",-2],
["CDISCPILOT01","VS","CDISC014",42,"SYSBP","Systolic Blood Pressure","STANDING","110","mmHg","110",110,"mmHg","","","",2,2,"SCREENING 2","SCREENING","2013-04-01",-2],
["CDISCPILOT01","VS","CDISC014",43,"SYSBP","Systolic Blood Pressure","STANDING","132","mmHg","132",132,"mmHg","","","",3,2,"SCREENING 2","SCREENING","2013-04-01",-2],
["CDISCPILOT01","VS","CDISC014",44,"SYSBP","Systolic Blood Pressure","SUPINE","154","mmHg","154",154,"mmHg","","","",1,3,"BASELINE","SCREENING","2013-04-03",1],
["CDISCPILOT01","VS","CDISC014",45,"SYSBP","Systolic Blood Pressure","STANDING","126","mmHg","126",126,"mmHg","","","",2,3,"BASELINE","SCREENING","2013-04-03",1],
["CDISCPILOT01","VS","CDISC014",46,"SYSBP","Systolic Blood Pressure","STANDING","144","mmHg","144",144,"mmHg","","","Y",3,3,"BASELINE","SCREENING","2013-04-03",1],
["CDISCPILOT01","VS","CDISC014",47,"SYSBP","Systolic Blood Pressure","SUPINE","152","mmHg","152",152,"mmHg","","","",1,4,"WEEK 2","TREATMENT","2013-04-17",15],
["CDISCPILOT01","VS","CDISC014",48,"SYSBP","Systolic Blood Pressure","STANDING","128","mmHg","128",128,"mmHg","","","",2,4,"WEEK 2","TREATMENT","2013-04-17",15],
["CDISCPILOT01","VS","CDISC014",49,"SYSBP","Systolic Blood Pressure","STANDING","136","mmHg","136",136,"mmHg","","","",3,4,"WEEK 2","TREATMENT","2013-04-17",15],
["CDISCPILOT01","VS","CDISC014",50,"SYSBP","Systolic Blood Pressure","SUPINE","150","mmHg","150",150,"mmHg","","","",1,5,"WEEK 4","TREATMENT","2013-05-02",30],
["CDISCPILOT01","VS","CDISC014",51,"SYSBP","Systolic Blood Pressure","STANDING","120","mmHg","120",120,"mmHg","","","",2,5,"WEEK 4","TREATMENT","2013-05-02",30],
["CDISCPILOT01","VS","CDISC014",52,"SYSBP","Systolic Blood Pressure","STANDING","118","mmHg","118",118,"mmHg","","","",3,5,"WEEK 4","TREATMENT","2013-05-02",30],
["CDISCPILOT01","VS","CDISC014",53,"SYSBP","Systolic Blood Pressure","SUPINE","158","mmHg","158",158,"mmHg","","","",1,201,"EARLY DISCONTINUATION RETRIEVAL","TREATMENT","2013-09-18",169],
["CDISCPILOT01","VS","CDISC014",54,"SYSBP","Systolic Blood Pressure","STANDING","150","mmHg","150",150,"mmHg","","","",2,201,"EARLY DISCONTINUATION RETRIEVAL","TREATMENT","2013-09-18",169],
["CDISCPILOT01","VS","CDISC014",55,"SYSBP","Systolic Blood Pressure","STANDING","140","mmHg","140",140,"mmHg","","","",3,201,"EARLY DISCONTINUATION RETRIEVAL","TREATMENT","2013-09-18",169],
["CDISCPILOT01","VS","CDISC014",56,"TEMP","Temperature","","097.6","F","36.44",36.44,"C","","ORAL CAVITY","","",1,"SCREENING 1","SCREENING","2013-03-20",-14],
["CDISCPILOT01","VS","CDISC014",57,"TEMP","Temperature","","097.4","F","36.33",36.33,"C","","ORAL CAVITY","","",2,"SCREENING 2","SCREENING","2013-04-01",-2],
["CDISCPILOT01","VS","CDISC014",58,"TEMP","Temperature","","099.4","F","37.44",37.44,"C","","ORAL CAVITY","","",3,"BASELINE","SCREENING","2013-04-03",1],
["CDISCPILOT01","VS","CDISC014",59,"TEMP","Temperature","","098.4","F","36.89",36.89,"C","","ORAL CAVITY","","",4,"WEEK 2","TREATMENT","2013-04-17",15],
["CDISCPILOT01","VS","CDISC014",60,"TEMP","Temperature","","098.6","F","37",37,"C","","ORAL CAVITY","","",5,"WEEK 4","TREATMENT","2013-05-02",30],
["CDISCPILOT01","VS","CDISC014",61,"TEMP","Temperature","","097.1","F","36.17",36.17,"C","","ORAL CAVITY","","",201,"EARLY DISCONTINUATION RETRIEVAL","TREATMENT","2013-09-18",169],
["CDISCPILOT01","VS","CDISC014",62,"WEIGHT","Weight","","181.5","LB","82.33",82.33,"kg","","","","",1,"SCREENING 1","SCREENING","2013-03-20",-14],
["CDISCPILOT01","VS","CDISC014",63,"WEIGHT","Weight","","178.5","LB","80.97",80.97,"kg","","","","",3,"BASELINE","SCREENING","2013-04-03",1],
["CDISCPILOT01","VS","CDISC014",64,"WEIGHT","Weight","","181.0","LB","82.1",82.1,"kg","","","","",4,"WEEK 2","TREATMENT","2013-04-17",15],
["CDISCPILOT01","VS","CDISC014",65,"WEIGHT","Weight","","179.5","LB","81.42",81.42,"kg","","","","",5,"WEEK 4","TREATMENT","2013-05-02",30],
["CDISCPILOT01","VS","CDISC016",1,"DIABP","Diastolic Blood Pressure","SUPINE","078","mmHg","78",78,"mmHg","","","",1,1,"SCREENING 1","SCREENING","2013-03-30",-4],
["CDISCPILOT01","VS","CDISC016",2,"DIABP","Diastolic Blood Pressure","STANDING","066","mmHg","66",66,"mmHg","","","",2,1,"SCREENING 1","SCREENING","2013-03-30",-4],
["CDISCPILOT01","VS","CDISC016",3,"DIABP","Diastolic Blood Pressure","STANDING","068","mmHg","68",68,"mmHg","","","",3,1,"SCREENING 1","SCREENING","2013-03-30",-4],
["CDISCPILOT01","VS","CDISC016",4,"DIABP","Diastolic Blood Pressure","SUPINE","080","mmHg","80",80,"mmHg","","","",1,2,"SCREENING 2","SCREENING","2013-04-01",-2],
["CDISCPILOT01","VS","CDISC016",5,"DIABP","Diastolic Blood Pressure","STANDING","070","mmHg","70",70,"mmHg","","","",2,2,"SCREENING 2","SCREENING","2013-04-01",-2],
["CDISCPILOT01","VS","CDISC016",6,"DIABP","Diastolic Blood Pressure","STANDING","072","mmHg","72",72,"mmHg","","","",3,2,"SCREENING 2","SCREENING","2013-04-01",-2],
["CDISCPILOT01","VS","CDISC016",7,"DIABP","Diastolic Blood Pressure","SUPINE","076","mmHg","76",76,"mmHg","","","",1,3,"BASELINE","SCREENING","2013-04-03",1],
["CDISCPILOT01","VS","CDISC016",8,"DIABP","Diastolic Blood Pressure","STANDING","072","mmHg","72",72,"mmHg","","","",2,3,"BASELINE","SCREENING","2013-04-03",1],
["CDISCPILOT01","VS","CDISC016",9,"DIABP","Diastolic Blood Pressure","STANDING","072","mmHg","72",72,"mmHg","","","Y",3,3,"BASELINE","SCREENING","2013-04-03",1],
["CDISCPILOT01","VS","CDISC016",10,"DIABP","Diastolic Blood Pressure","SUPINE","070","mmHg","70",70,"mmHg","","","",1,4,"WEEK 2","TREATMENT","2013-04-17",15],
["CDISCPILOT01","VS","CDISC016",11,"DIABP","Diastolic Blood Pressure","STANDING","074","mmHg","74",74,"mmHg","","","",2,4,"WEEK 2","TREATMENT","2013-04-17",15],
["CDISCPILOT01","VS","CDISC016",12,"DIABP","Diastolic Blood Pressure","STANDING","074","mmHg","74",74,"mmHg","","","",3,4,"WEEK 2","TREATMENT","2013-04-17",15],
["CDISCPILOT01","VS","CDISC016",13,"DIABP","Diastolic Blood Pressure","SUPINE","080","mmHg","80",80,"mmHg","","","",1,5,"WEEK 4","TREATMENT","2013-04-29",27],
["CDISCPILOT01","VS","CDISC016",14,"DIABP","Diastolic Blood Pressure","STANDING","072","mmHg","72",72,"mmHg","","","",2,5,"WEEK 4","TREATMENT","2013-04-29",27],
["CDISCPILOT01","VS","CDISC016",15,"DIABP","Diastolic Blood Pressure","STANDING","072","mmHg","72",72,"mmHg","","","",3,5,"WEEK 4","TREATMENT","2013-04-29",27],
["CDISCPILOT01","VS","CDISC016",16,"DIABP","Diastolic Blood Pressure","SUPINE","078","mmHg","78",78,"mmHg","","","",1,7,"WEEK 6","TREATMENT","2013-05-15",43],
["CDISCPILOT01","VS","CDISC016",17,"DIABP","Diastolic Blood Pressure","STANDING","076","mmHg","76",76,"mmHg","","","",2,7,"WEEK 6","TREATMENT","2013-05-15",43],
["CDISCPILOT01","VS","CDISC016",18,"DIABP","Diastolic Blood Pressure","STANDING","076","mmHg","76",76,"mmHg","","","",3,7,"WEEK 6","TREATMENT","2013-05-15",43],
["CDISCPILOT01","VS","CDISC016",19,"DIABP","Diastolic Blood Pressure","SUPINE","072","mmHg","72",72,"mmHg","","","",1,8,"WEEK 8","TREATMENT","2013-05-28",56],
["CDISCPILOT01","VS","CDISC016",20,"DIABP","Diastolic Blood Pressure","STANDING","076","mmHg","76",76,"mmHg","","","",2,8,"WEEK 8","TREATMENT","2013-05-28",56],
["CDISCPILOT01","VS","CDISC016",21,"DIABP","Diastolic Blood Pressure","STANDING","074","mmHg","74",74,"mmHg","","","",3,8,"WEEK 8","TREATMENT","2013-05-28",56],
["CDISCPILOT01","VS","CDISC016",22,"DIABP","Diastolic Blood Pressure","SUPINE","070","mmHg","70",70,"mmHg","","","",1,9,"WEEK 12","TREATMENT","2013-06-01",60],
["CDISCPILOT01","VS","CDISC016",23,"DIABP","Diastolic Blood Pressure","STANDING","068","mmHg","68",68,"mmHg","","","",2,9,"WEEK 12","TREATMENT","2013-06-01",60],
["CDISCPILOT01","VS","CDISC016",24,"DIABP","Diastolic Blood Pressure","STANDING","068","mmHg","68",68,"mmHg","","","",3,9,"WEEK 12","TREATMENT","2013-06-01",60],
["CDISCPILOT01","VS","CDISC016",25,"DIABP","Diastolic Blood Pressure","SUPINE","076","mmHg","76",76,"mmHg","","","",1,201,"EARLY DISCONTINUATION RETRIEVAL","TREATMENT","2013-09-22",173],
["CDISCPILOT01","VS","CDISC016",26,"DIABP","Diastolic Blood Pressure","STANDING","072","mmHg","72",72,"mmHg","","","",2,201,"EARLY DISCONTINUATION RETRIEVAL","TREATMENT","2013-09-22",173],
["CDISCPILOT01","VS","CDISC016",27,"DIABP","Diastolic Blood Pressure","STANDING","070","mmHg","70",70,"mmHg","","","",3,201,"EARLY DISCONTINUATION RETRIEVAL","TREATMENT","2013-09-22",173],
["CDISCPILOT01","VS","CDISC016",28,"HEIGHT","Height","","064.2","in","163.07",163.07,"cm","","","","",1,"SCREENING 1","SCREENING","2013-03-30",-4],
["CDISCPILOT01","VS","CDISC016",29,"PULSE","Pulse Rate","SUPINE","56","beats/min","56",56,"beats/min","","","",1,1,"SCREENING 1","SCREENING","2013-03-30",-4],
["CDISCPILOT01","VS","CDISC016",30,"PULSE","Pulse Rate","STANDING","64","beats/min","64",64,"beats/min","","","",2,1,"SCREENING 1","SCREENING","2013-03-30",-4],
["CDISCPILOT01","VS","CDISC016",31,"PULSE","Pulse Rate","STANDING","64","beats/min","64",64,"beats/min","","","",3,1,"SCREENING 1","SCREENING","2013-03-30",-4],
["CDISCPILOT01","VS","CDISC016",32,"PULSE","Pulse Rate","SUPINE","072","beats/min","72",72,"beats/min","","","",1,2,"SCREENING 2","SCREENING","2013-04-01",-2],
["CDISCPILOT01","VS","CDISC016",33,"PULSE","Pulse Rate","STANDING","068","beats/min","68",68,"beats/min","","","",2,2,"SCREENING 2","SCREENING","2013-04-01",-2],
["CDISCPILOT01","VS","CDISC016",34,"PULSE","Pulse Rate","STANDING","068","beats/min","68",68,"beats/min","","","",3,2,"SCREENING 2","SCREENING","2013-04-01",-2],
["CDISCPILOT01","VS","CDISC016",35,"PULSE","Pulse Rate","SUPINE","072","beats/min","72",72,"beats/min","","","",1,3,"BASELINE","SCREENING","2013-04-03",1],
["CDISCPILOT01","VS","CDISC016",36,"PULSE","Pulse Rate","STANDING","068","beats/min","68",68,"beats/min","","","",2,3,"BASELINE","SCREENING","2013-04-03",1],
["CDISCPILOT01","VS","CDISC016",37,"PULSE","Pulse Rate","STANDING","068","beats/min","68",68,"beats/min","","","Y",3,3,"BASELINE","SCREENING","2013-04-03",1],
["CDISCPILOT01","VS","CDISC016",38,"PULSE","Pulse Rate","SUPINE","060","beats/min","60",60,"beats/min","","","",1,4,"WEEK 2","TREATMENT","2013-04-17",15],
["CDISCPILOT01","VS","CDISC016",39,"PULSE","Pulse Rate","STANDING","064","beats/min","64",64,"beats/min","","","",2,4,"WEEK 2","TREATMENT","2013-04-17",15],
["CDISCPILOT01","VS","CDISC016",40,"PULSE","Pulse Rate","STANDING","064","beats/min","64",64,"beats/min","","","",3,4,"WEEK 2","TREATMENT","2013-04-17",15],
["CDISCPILOT01","VS","CDISC016",41,"PULSE","Pulse Rate","SUPINE","060","beats/min","60",60,"beats/min","","","",1,5,"WEEK 4","TREATMENT","2013-04-29",27],
["CDISCPILOT01","VS","CDISC016",42,"PULSE","Pulse Rate","STANDING","080","beats/min","80",80,"beats/min","","","",2,5,"WEEK 4","TREATMENT","2013-04-29",27],
["CDISCPILOT01","VS","CDISC016",43,"PULSE","Pulse Rate","STANDING","080","beats/min","80",80,"beats/min","","","",3,5,"WEEK 4","TREATMENT","2013-04-29",27],
["CDISCPILOT01","VS","CDISC016",44,"PULSE","Pulse Rate","SUPINE","064","beats/min","64",64,"beats/min","","","",1,7,"WEEK 6","TREATMENT","2013-05-15",43],
["CDISCPILOT01","VS","CDISC016",45,"PULSE","Pulse Rate","STANDING","060","beats/min","60",60,"beats/min","","","",2,7,"WEEK 6","TREATMENT","2013-05-15",43],
["CDISCPILOT01","VS","CDISC016",46,"PULSE","Pulse Rate","STANDING","064","beats/min","64",64,"beats/min","","","",3,7,"WEEK 6","TREATMENT","2013-05-15",43],
["CDISCPILOT01","VS","CDISC016",47,"PULSE","Pulse Rate","SUPINE","064","beats/min","64",64,"beats/min","","","",1,8,"WEEK 8","TREATMENT","2013-05-28",56],
["CDISCPILOT01","VS","CDISC016",48,"PULSE","Pulse Rate","STANDING","068","beats/min","68",68,"beats/min","","","",2,8,"WEEK 8","TREATMENT","2013-05-28",56],
["CDISCPILOT01","VS","CDISC016",49,"PULSE","Pulse Rate","STANDING","068","beats/min","68",68,"beats/min","","","",3,8,"WEEK 8","TREATMENT","2013-05-28",56],
["CDISCPILOT01","VS","CDISC016",50,"PULSE","Pulse Rate","SUPINE","060","beats/min","60",60,"beats/min","","","",1,9,"WEEK 12","TREATMENT","2013-06-01",60],
["CDISCPILOT01","VS","CDISC016",51,"PULSE","Pulse Rate","STANDING","064","beats/min","64",64,"beats/min","","","",2,9,"WEEK 12","TREATMENT","2013-06-01",60],
["CDISCPILOT01","VS","CDISC016",52,"PULSE","Pulse Rate","STANDING","064","beats/min","64",64,"beats/min","","","",3,9,"WEEK 12","TREATMENT","2013-06-01",60],
["CDISCPILOT01","VS","CDISC016",53,"PULSE","Pulse Rate","SUPINE","056","beats/min","56",56,"beats/min","","","",1,201,"EARLY DISCONTINUATION RETRIEVAL","TREATMENT","2013-09-22",173],
["CDISCPILOT01","VS","CDISC016",54,"PULSE","Pulse Rate","STANDING","072","beats/min","72",72,"beats/min","","","",2,201,"EARLY DISCONTINUATION RETRIEVAL","TREATMENT","2013-09-22",173],
["CDISCPILOT01","VS","CDISC016",55,"PULSE","Pulse Rate","STANDING","076","beats/min","76",76,"beats/min","","","",3,201,"EARLY DISCONTINUATION RETRIEVAL","TREATMENT","2013-09-22",173],
["CDISCPILOT01","VS","CDISC016",56,"SYSBP","Systolic Blood Pressure","SUPINE","150","mmHg","150",150,"mmHg","","","",1,1,"SCREENING 1","SCREENING","2013-03-30",-4],
["CDISCPILOT01","VS","CDISC016",57,"SYSBP","Systolic Blood Pressure","STANDING","142","mmHg","142",142,"mmHg","","","",2,1,"SCREENING 1","SCREENING","2013-03-30",-4],
["CDISCPILOT01","VS","CDISC016",58,"SYSBP","Systolic Blood Pressure","STANDING","158","mmHg","158",158,"mmHg","","","",3,1,"SCREENING 1","SCREENING","2013-03-30",-4],
["CDISCPILOT01","VS","CDISC016",59,"SYSBP","Systolic Blood Pressure","SUPINE","170","mmHg","170",170,"mmHg","","","",1,2,"SCREENING 2","SCREENING","2013-04-01",-2],
["CDISCPILOT01","VS","CDISC016",60,"SYSBP","Systolic Blood Pressure","STANDING","140","mmHg","140",140,"mmHg","","","",2,2,"SCREENING 2","SCREENING","2013-04-01",-2],
["CDISCPILOT01","VS","CDISC016",61,"SYSBP","Systolic Blood Pressure","STANDING","160","mmHg","160",160,"mmHg","","","",3,2,"SCREENING 2","SCREENING","2013-04-01",-2],
["CDISCPILOT01","VS","CDISC016",62,"SYSBP","Systolic Blood Pressure","SUPINE","164","mmHg","164",164,"mmHg","","","",1,3,"BASELINE","SCREENING","2013-04-03",1],
["CDISCPILOT01","VS","CDISC016",63,"SYSBP","Systolic Blood Pressure","STANDING","140","mmHg","140",140,"mmHg","","","",2,3,"BASELINE","SCREENING","2013-04-03",1],
["CDISCPILOT01","VS","CDISC016",64,"SYSBP","Systolic Blood Pressure","STANDING","150","mmHg","150",150,"mmHg","","","Y",3,3,"BASELINE","SCREENING","2013-04-03",1],
["CDISCPILOT01","VS","CDISC016",65,"SYSBP","Systolic Blood Pressure","SUPINE","160","mmHg","160",160,"mmHg","","","",1,4,"WEEK 2","TREATMENT","2013-04-17",15],
["CDISCPILOT01","VS","CDISC016",66,"SYSBP","Systolic Blood Pressure","STANDING","158","mmHg","158",158,"mmHg","","","",2,4,"WEEK 2","TREATMENT","2013-04-17",15],
["CDISCPILOT01","VS","CDISC016",67,"SYSBP","Systolic Blood Pressure","STANDING","160","mmHg","160",160,"mmHg","","","",3,4,"WEEK 2","TREATMENT","2013-04-17",15],
["CDISCPILOT01","VS","CDISC016",68,"SYSBP","Systolic Blood Pressure","SUPINE","168","mmHg","168",168,"mmHg","","","",1,5,"WEEK 4","TREATMENT","2013-04-29",27],
["CDISCPILOT01","VS","CDISC016",69,"SYSBP","Systolic Blood Pressure","STANDING","150","mmHg","150",150,"mmHg","","","",2,5,"WEEK 4","TREATMENT","2013-04-29",27],
["CDISCPILOT01","VS","CDISC016",70,"SYSBP","Systolic Blood Pressure","STANDING","160","mmHg","160",160,"mmHg","","","",3,5,"WEEK 4","TREATMENT","2013-04-29",27],
["CDISCPILOT01","VS","CDISC016",71,"SYSBP","Systolic Blood Pressure","SUPINE","162","mmHg","162",162,"mmHg","","","",1,7,"WEEK 6","TREATMENT","2013-05-15",43],
["CDISCPILOT01","VS","CDISC016",72,"SYSBP","Systolic Blood Pressure","STANDING","140","mmHg","140",140,"mmHg","","","",2,7,"WEEK 6","TREATMENT","2013-05-15",43],
["CDISCPILOT01","VS","CDISC016",73,"SYSBP","Systolic Blood Pressure","STANDING","160","mmHg","160",160,"mmHg","","","",3,7,"WEEK 6","TREATMENT","2013-05-15",43],
["CDISCPILOT01","VS","CDISC016",74,"SYSBP","Systolic Blood Pressure","SUPINE","160","mmHg","160",160,"mmHg","","","",1,8,"WEEK 8","TREATMENT","2013-05-28",56],
["CDISCPILOT01","VS","CDISC016",75,"SYSBP","Systolic Blood Pressure","STANDING","130","mmHg","130",130,"mmHg","","","",2,8,"WEEK 8","TREATMENT","2013-05-28",56],
["CDISCPILOT01","VS","CDISC016",76,"SYSBP","Systolic Blood Pressure","STANDING","126","mmHg","126",126,"mmHg","","","",3,8,"WEEK 8","TREATMENT","2013-05-28",56],
["CDISCPILOT01","VS","CDISC016",77,"SYSBP","Systolic Blood Pressure","SUPINE","144","mmHg","144",144,"mmHg","","","",1,9,"WEEK 12","TREATMENT","2013-06-01",60],
["CDISCPILOT01","VS","CDISC016",78,"SYSBP","Systolic Blood Pressure","STANDING","132","mmHg","132",132,"mmHg","","","",2,9,"WEEK 12","TREATMENT","2013-06-01",60],
["CDISCPILOT01","VS","CDISC016",79,"SYSBP","Systolic Blood Pressure","STANDING","138","mmHg","138",138,"mmHg","","","",3,9,"WEEK 12","TREATMENT","2013-06-01",60],
["CDISCPILOT01","VS","CDISC016",80,"SYSBP","Systolic Blood Pressure","SUPINE","168","mmHg","168",168,"mmHg","","","",1,201,"EARLY DISCONTINUATION RETRIEVAL","TREATMENT","2013-09-22",173],
["CDISCPILOT01","VS","CDISC016",81,"SYSBP","Systolic Blood Pressure","STANDING","140","mmHg","140",140,"mmHg","","","",2,201,"EARLY DISCONTINUATION RETRIEVAL","TREATMENT","2013-09-22",173],
["CDISCPILOT01","VS","CDISC016",82,"SYSBP","Systolic Blood Pressure","STANDING","142","mmHg","142",142,"mmHg","","","",3,201,"EARLY DISCONTINUATION RETRIEVAL","TREATMENT","2013-09-22",173],
["CDISCPILOT01","VS","CDISC016",83,"TEMP","Temperature","","097.0","F","36.11",36.11,"C","","ORAL CAVITY","","",1,"SCREENING 1","SCREENING","2013-03-30",-4],
["CDISCPILOT01","VS","CDISC016",84,"TEMP","Temperature","","095.7","F","35.39",35.39,"C","","ORAL CAVITY","","",2,"SCREENING 2","SCREENING","2013-04-01",-2],
["CDISCPILOT01","VS","CDISC016",85,"TEMP","Temperature","","097.4","F","36.33",36.33,"C","","ORAL CAVITY","","",3,"BASELINE","SCREENING","2013-04-03",1],
["CDISCPILOT01","VS","CDISC016",86,"TEMP","Temperature","","096.5","F","35.83",35.83,"C","","ORAL CAVITY","","",4,"WEEK 2","TREATMENT","2013-04-17",15],
["CDISCPILOT01","VS","CDISC016",87,"TEMP","Temperature","","097.2","F","36.22",36.22,"C","","ORAL CAVITY","","",5,"WEEK 4","TREATMENT","2013-04-29",27],
["CDISCPILOT01","VS","CDISC016",88,"TEMP","Temperature","","096.4","F","35.78",35.78,"C","","ORAL CAVITY","","",7,"WEEK 6","TREATMENT","2013-05-15",43],
["CDISCPILOT01","VS","CDISC016",89,"TEMP","Temperature","","096.6","F","35.89",35.89,"C","","ORAL CAVITY","","",8,"WEEK 8","TREATMENT","2013-05-28",56],
["CDISCPILOT01","VS","CDISC016",90,"TEMP","Temperature","","096.7","F","35.94",35.94,"C","","ORAL CAVITY","","",9,"WEEK 12","TREATMENT","2013-06-01",60],
["CDISCPILOT01","VS","CDISC016",91,"TEMP","Temperature","","097.5","F","36.39",36.39,"C","","ORAL CAVITY","","",201,"EARLY DISCONTINUATION RETRIEVAL","TREATMENT","2013-09-22",173],
["CDISCPILOT01","VS","CDISC016",92,"WEIGHT","Weight","","141.5","LB","64.18",64.18,"kg","","","","",1,"SCREENING 1","SCREENING","2013-03-30",-4],
["CDISCPILOT01","VS","CDISC016",93,"WEIGHT","Weight","","142.5","LB","64.64",64.64,"kg","","","","",3,"BASELINE","SCREENING","2013-04-03",1],
["CDISCPILOT01","VS","CDISC016",94,"WEIGHT","Weight","","146.0","LB","66.23",66.23,"kg","","","","",4,"WEEK 2","TREATMENT","2013-04-17",15],
["CDISCPILOT01","VS","CDISC016",95,"WEIGHT","Weight","","146.5","LB","66.45",66.45,"kg","","","","",5,"WEEK 4","TREATMENT","2013-04-29",27],
["CDISCPILOT01","VS","CDISC016",96,"WEIGHT","Weight","","143.0","LB","64.86",64.86,"kg","","","","",7,"WEEK 6","TREATMENT","2013-05-15",43],
["CDISCPILOT01","VS","CDISC016",97,"WEIGHT","Weight","","142.5","LB","64.64",64.64,"kg","","","","",8,"WEEK 8","TREATMENT","2013-05-28",56],
["CDISCPILOT01","VS","CDISC016",98,"WEIGHT","Weight","","144.5","LB","65.55",65.55,"kg","","","","",9,"WEEK 12","TREATMENT","2013-06-01",60],
["CDISCPILOT01","VS","CDISC017",1,"DIABP","Diastolic Blood Pressure","SUPINE","58","mmHg","58",58,"mmHg","","","",1,1,"SCREENING 1","SCREENING","2013-08-21",-31],
["CDISCPILOT01","VS","CDISC017",2,"DIABP","Diastolic Blood Pressure","STANDING","60","mmHg","60",60,"mmHg","","","",2,1,"SCREENING 1","SCREENING","2013-08-21",-31],
["CDISCPILOT01","VS","CDISC017",3,"DIABP","Diastolic Blood Pressure","STANDING","61","mmHg","61",61,"mmHg","","","",3,1,"SCREENING 1","SCREENING","2013-08-21",-31],
["CDISCPILOT01","VS","CDISC017",4,"DIABP","Diastolic Blood Pressure","SUPINE","62","mmHg","62",62,"mmHg","","","",1,2,"SCREENING 2","SCREENING","2013-09-19",-2],
["CDISCPILOT01","VS","CDISC017",5,"DIABP","Diastolic Blood Pressure","STANDING","60","mmHg","60",60,"mmHg","","","",2,2,"SCREENING 2","SCREENING","2013-09-19",-2],
["CDISCPILOT01","VS","CDISC017",6,"DIABP","Diastolic Blood Pressure","STANDING","64","mmHg","64",64,"mmHg","","","",3,2,"SCREENING 2","SCREENING","2013-09-19",-2],
["CDISCPILOT01","VS","CDISC017",7,"DIABP","Diastolic Blood Pressure","SUPINE","59","mmHg","59",59,"mmHg","","","",1,3,"BASELINE","SCREENING","2013-09-21",1],
["CDISCPILOT01","VS","CDISC017",8,"DIABP","Diastolic Blood Pressure","STANDING","63","mmHg","63",63,"mmHg","","","",2,3,"BASELINE","SCREENING","2013-09-21",1],
["CDISCPILOT01","VS","CDISC017",9,"DIABP","Diastolic Blood Pressure","STANDING","62","mmHg","62",62,"mmHg","","","Y",3,3,"BASELINE","SCREENING","2013-09-21",1],
