{
"clinicalData":{"studyOID":"CDISCPILOT01","metaDataVersionOID":"CDISC.ADaM.2.1","itemGroupData": {"ADLBHY":{"records":9955,"name":"ADLBHY","label":"Analysis Dataset Lab Hy's Law","items":[{"OID": "ITEMGROUPDATASEQ", "name": "ITEMGROUPDATASEQ", "label": "Record Identifier", "type": "integer"},{"OID": "ADLBHY.STUDYID", "name":"STUDYID", "label":"Study Identifier", "type":"string", "length":12},{"OID": "ADLBHY.SUBJID", "name":"SUBJID", "label":"Subject Identifier for the Study", "type":"string", "length":4},{"OID": "ADLBHY.USUBJID", "name":"USUBJID", "label":"Unique Subject Identifier", "type":"string", "length":11},{"OID": "ADLBHY.TRTP", "name":"TRTP", "label":"Planned Treatment", "type":"string", "length":20},{"OID": "ADLBHY.TRTPN", "name":"TRTPN", "label":"Planned Treatment (N)", "type":"integer", "length":8},{"OID": "ADLBHY.TRTA", "name":"TRTA", "label":"Actual Treatment", "type":"string", "length":20},{"OID": "ADLBHY.TRTAN", "name":"TRTAN", "label":"Actual Treatment (N)", "type":"integer", "length":8},{"OID": "ADLBHY.TRTSDT", "name":"TRTSDT", "label":"Date of First Exposure to Treatment", "type":"integer", "length":8},{"OID": "ADLBHY.TRTEDT", "name":"TRTEDT", "label":"Date of Last Exposure to Treatment", "type":"integer", "length":8},{"OID": "ADLBHY.AGE", "name":"AGE", "label":"Age", "type":"integer", "length":8},{"OID": "ADLBHY.AGEGR1", "name":"AGEGR1", "label":"Pooled Age Group 1", "type":"string", "length":5},{"OID": "ADLBHY.AGEGR1N", "name":"AGEGR1N", "label":"Pooled Age Group 1 (N)", "type":"integer", "length":8},{"OID": "ADLBHY.RACE", "name":"RACE", "label":"Race", "type":"string", "length":32},{"OID": "ADLBHY.RACEN", "name":"RACEN", "label":"Race (N)", "type":"integer", "length":8},{"OID": "ADLBHY.SEX", "name":"SEX", "label":"Sex", "type":"string", "length":1},{"OID": "ADLBHY.COMP24FL", "name":"COMP24FL", "label":"Completers of Week 24 Population Flag", "type":"string", "length":1},{"OID": "ADLBHY.DSRAEFL", "name":"DSRAEFL", "label":"Discontinued due to AE?", "type":"string", "length":1},{"OID": "ADLBHY.SAFFL", "name":"SAFFL", "label":"Safety Population Flag", "type":"string", "length":1},{"OID": "ADLBHY.AVISIT", "name":"AVISIT", "label":"Analysis Visit", "type":"string", "length":16},{"OID": "ADLBHY.AVISITN", "name":"AVISITN", "label":"Analysis Visit (N)", "type":"integer", "length":8},{"OID": "ADLBHY.ADY", "name":"ADY", "label":"Analysis Relative Day", "type":"integer", "length":8},{"OID": "ADLBHY.ADT", "name":"ADT", "label":"Analysis Date", "type":"integer", "length":8},{"OID": "ADLBHY.VISIT", "name":"VISIT", "label":"Visit Name", "type":"string", "length":19},{"OID": "ADLBHY.VISITNUM", "name":"VISITNUM", "label":"Visit Number", "type":"float", "length":8, "fractionDigits":1},{"OID": "ADLBHY.PARAMTYP", "name":"PARAMTYP", "label":"Parameter Type", "type":"string", "length":7},{"OID": "ADLBHY.PARAM", "name":"PARAM", "label":"Parameter", "type":"string", "length":100},{"OID": "ADLBHY.PARAMCD", "name":"PARAMCD", "label":"Parameter Code", "type":"string", "length":8},{"OID": "ADLBHY.PARAMN", "name":"PARAMN", "label":"Parameter (N)", "type":"integer", "length":8},{"OID": "ADLBHY.PARCAT1", "name":"PARCAT1", "label":"Parameter Category 1", "type":"string", "length":5},{"OID": "ADLBHY.AVAL", "name":"AVAL", "label":"Analysis Value", "type":"float", "length":8, "fractionDigits":2},{"OID": "ADLBHY.BASE", "name":"BASE", "label":"Baseline Value", "type":"float", "length":8, "fractionDigits":2},{"OID": "ADLBHY.A1LO", "name":"A1LO", "label":"Analysis Range 1 Lower Limit", "type":"float", "length":8, "fractionDigits":1},{"OID": "ADLBHY.A1HI", "name":"A1HI", "label":"Analysis Range 1 Upper Limit", "type":"float", "length":8, "fractionDigits":1},{"OID": "ADLBHY.R2A1LO", "name":"R2A1LO", "label":"Ratio to Analysis Range 1 Lower Limit", "type":"float", "length":8, "fractionDigits":1},{"OID": "ADLBHY.R2A1HI", "name":"R2A1HI", "label":"Ratio to Analysis Range 1 Upper Limit", "type":"float", "length":8, "fractionDigits":1},{"OID": "ADLBHY.BR2A1LO", "name":"BR2A1LO", "label":"Base Ratio to Analysis Range 1 Lower Lim", "type":"float", "length":8, "fractionDigits":1},{"OID": "ADLBHY.BR2A1HI", "name":"BR2A1HI", "label":"Base Ratio to Analysis Range 1 Upper Lim", "type":"float", "length":8, "fractionDigits":1},{"OID": "ADLBHY.ABLFL", "name":"ABLFL", "label":"Baseline Record Flag", "type":"string", "length":1},{"OID": "ADLBHY.SHIFT1", "name":"SHIFT1", "label":"Shift 1", "type":"string", "length":16},{"OID": "ADLBHY.SHIFT1N", "name":"SHIFT1N", "label":"Shift 1 (N)", "type":"integer", "length":8},{"OID": "ADLBHY.CRIT1", "name":"CRIT1", "label":"Analysis Criterion 1", "type":"string", "length":12},{"OID": "ADLBHY.CRIT1FL", "name":"CRIT1FL", "label":"Criterion 1 Evaluation Result Flag", "type":"string", "length":1},{"OID": "ADLBHY.CRIT1FN", "name":"CRIT1FN", "label":"Criterion 1 Evaluation Result Flag (N)", "type":"integer", "length":8}],"itemData": [
[1,"CDISCPILOT01","1015","01-701-1015","Placebo",0,"Placebo",0,19725,19906,63,"<65",1,"WHITE",1,"F","Y","","Y","Baseline",0,-7,19718,"SCREENING 1",1,"","Alanine Aminotransferase (U/L)","ALT",1,"CHEM",27,27,6,34,4.5,0.8,4.5,0.8,"Y","",null,"R2A1HI > 1.5","N",0],
[2,"CDISCPILOT01","1015","01-701-1015","Placebo",0,"Placebo",0,19725,19906,63,"<65",1,"WHITE",1,"F","Y","","Y","Baseline",0,-7,19718,"SCREENING 1",1,"","Aspartate Aminotransferase (U/L)","AST",2,"CHEM",40,40,9,34,4.4,1.2,4.4,1.2,"Y","",null,"R2A1HI > 1.5","N",0],
[3,"CDISCPILOT01","1015","01-701-1015","Placebo",0,"Placebo",0,19725,19906,63,"<65",1,"WHITE",1,"F","Y","","Y","Baseline",0,-7,19718,"SCREENING 1",1,"","Bilirubin (umol/L)","BILI",3,"CHEM",10.26,10.26,3,21,3.4,0.5,3.4,0.5,"Y","",null,"R2A1HI > 1.5","N",0],
[4,"CDISCPILOT01","1015","01-701-1015","Placebo",0,"Placebo",0,19725,19906,63,"<65",1,"WHITE",1,"F","Y","","Y","Baseline",0,null,null,"",null,"DERIVED","Bilirubin 1.5 x ULN","BILIHY",4,"HYLAW",0,0,null,null,null,null,null,null,"Y","Normal to Normal",1,"","",null],
[5,"CDISCPILOT01","1015","01-701-1015","Placebo",0,"Placebo",0,19725,19906,63,"<65",1,"WHITE",1,"F","Y","","Y","Baseline",0,null,null,"",null,"DERIVED","Transaminase 1.5 x ULN","TRANSHY",5,"HYLAW",0,0,null,null,null,null,null,null,"Y","Normal to Normal",1,"","",null],
[6,"CDISCPILOT01","1015","01-701-1015","Placebo",0,"Placebo",0,19725,19906,63,"<65",1,"WHITE",1,"F","Y","","Y","Baseline",0,null,null,"",null,"DERIVED","Total Bili 1.5 x ULN and Transaminase 1.5 x ULN","HYLAW",6,"HYLAW",0,0,null,null,null,null,null,null,"Y","Normal to Normal",1,"","",null],
[7,"CDISCPILOT01","1015","01-701-1015","Placebo",0,"Placebo",0,19725,19906,63,"<65",1,"WHITE",1,"F","Y","","Y","Week 2",2,15,19739,"WEEK 2",4,"","Alanine Aminotransferase (U/L)","ALT",1,"CHEM",41,27,6,34,6.8,1.2,4.5,0.8,"","",null,"R2A1HI > 1.5","N",0],
[8,"CDISCPILOT01","1015","01-701-1015","Placebo",0,"Placebo",0,19725,19906,63,"<65",1,"WHITE",1,"F","Y","","Y","Week 2",2,15,19739,"WEEK 2",4,"","Aspartate Aminotransferase (U/L)","AST",2,"CHEM",33,40,9,34,3.7,1,4.4,1.2,"","",null,"R2A1HI > 1.5","N",0],
[9,"CDISCPILOT01","1015","01-701-1015","Placebo",0,"Placebo",0,19725,19906,63,"<65",1,"WHITE",1,"F","Y","","Y","Week 2",2,15,19739,"WEEK 2",4,"","Bilirubin (umol/L)","BILI",3,"CHEM",8.55,10.26,3,21,2.8,0.4,3.4,0.5,"","",null,"R2A1HI > 1.5","N",0],
[10,"CDISCPILOT01","1015","01-701-1015","Placebo",0,"Placebo",0,19725,19906,63,"<65",1,"WHITE",1,"F","Y","","Y","Week 2",2,null,null,"",null,"DERIVED","Bilirubin 1.5 x ULN","BILIHY",4,"HYLAW",0,0,null,null,null,null,null,null,"","Normal to Normal",1,"","",null],
[11,"CDISCPILOT01","1015","01-701-1015","Placebo",0,"Placebo",0,19725,19906,63,"<65",1,"WHITE",1,"F","Y","","Y","Week 2",2,null,null,"",null,"DERIVED","Transaminase 1.5 x ULN","TRANSHY",5,"HYLAW",0,0,null,null,null,null,null,null,"","Normal to Normal",1,"","",null],
[12,"CDISCPILOT01","1015","01-701-1015","Placebo",0,"Placebo",0,19725,19906,63,"<65",1,"WHITE",1,"F","Y","","Y","Week 2",2,null,null,"",null,"DERIVED","Total Bili 1.5 x ULN and Transaminase 1.5 x ULN","HYLAW",6,"HYLAW",0,0,null,null,null,null,null,null,"","Normal to Normal",1,"","",null],
[13,"CDISCPILOT01","1015","01-701-1015","Placebo",0,"Placebo",0,19725,19906,63,"<65",1,"WHITE",1,"F","Y","","Y","Week 4",4,29,19753,"WEEK 4",5,"","Alanine Aminotransferase (U/L)","ALT",1,"CHEM",18,27,6,34,3,0.5,4.5,0.8,"","",null,"R2A1HI > 1.5","N",0],
[14,"CDISCPILOT01","1015","01-701-1015","Placebo",0,"Placebo",0,19725,19906,63,"<65",1,"WHITE",1,"F","Y","","Y","Week 4",4,29,19753,"WEEK 4",5,"","Aspartate Aminotransferase (U/L)","AST",2,"CHEM",21,40,9,34,2.3,0.6,4.4,1.2,"","",null,"R2A1HI > 1.5","N",0],
[15,"CDISCPILOT01","1015","01-701-1015","Placebo",0,"Placebo",0,19725,19906,63,"<65",1,"WHITE",1,"F","Y","","Y","Week 4",4,29,19753,"WEEK 4",5,"","Bilirubin (umol/L)","BILI",3,"CHEM",6.84,10.26,3,21,2.3,0.3,3.4,0.5,"","",null,"R2A1HI > 1.5","N",0],
[16,"CDISCPILOT01","1015","01-701-1015","Placebo",0,"Placebo",0,19725,19906,63,"<65",1,"WHITE",1,"F","Y","","Y","Week 4",4,null,null,"",null,"DERIVED","Bilirubin 1.5 x ULN","BILIHY",4,"HYLAW",0,0,null,null,null,null,null,null,"","Normal to Normal",1,"","",null],
[17,"CDISCPILOT01","1015","01-701-1015","Placebo",0,"Placebo",0,19725,19906,63,"<65",1,"WHITE",1,"F","Y","","Y","Week 4",4,null,null,"",null,"DERIVED","Transaminase 1.5 x ULN","TRANSHY",5,"HYLAW",0,0,null,null,null,null,null,null,"","Normal to Normal",1,"","",null],
[18,"CDISCPILOT01","1015","01-701-1015","Placebo",0,"Placebo",0,19725,19906,63,"<65",1,"WHITE",1,"F","Y","","Y","Week 4",4,null,null,"",null,"DERIVED","Total Bili 1.5 x ULN and Transaminase 1.5 x ULN","HYLAW",6,"HYLAW",0,0,null,null,null,null,null,null,"","Normal to Normal",1,"","",null],
[19,"CDISCPILOT01","1015","01-701-1015","Placebo",0,"Placebo",0,19725,19906,63,"<65",1,"WHITE",1,"F","Y","","Y","Week 6",6,42,19766,"WEEK 6",7,"","Alanine Aminotransferase (U/L)","ALT",1,"CHEM",26,27,6,34,4.3,0.8,4.5,0.8,"","",null,"R2A1HI > 1.5","N",0],
[20,"CDISCPILOT01","1015","01-701-1015","Placebo",0,"Placebo",0,19725,19906,63,"<65",1,"WHITE",1,"F","Y","","Y","Week 6",6,42,19766,"WEEK 6",7,"","Aspartate Aminotransferase (U/L)","AST",2,"CHEM",26,40,9,34,2.9,0.8,4.4,1.2,"","",null,"R2A1HI > 1.5","N",0],
[21,"CDISCPILOT01","1015","01-701-1015","Placebo",0,"Placebo",0,19725,19906,63,"<65",1,"WHITE",1,"F","Y","","Y","Week 6",6,42,19766,"WEEK 6",7,"","Bilirubin (umol/L)","BILI",3,"CHEM",5.13,10.26,3,21,1.7,0.2,3.4,0.5,"","",null,"R2A1HI > 1.5","N",0],
[22,"CDISCPILOT01","1015","01-701-1015","Placebo",0,"Placebo",0,19725,19906,63,"<65",1,"WHITE",1,"F","Y","","Y","Week 6",6,null,null,"",null,"DERIVED","Bilirubin 1.5 x ULN","BILIHY",4,"HYLAW",0,0,null,null,null,null,null,null,"","Normal to Normal",1,"","",null],
[23,"CDISCPILOT01","1015","01-701-1015","Placebo",0,"Placebo",0,19725,19906,63,"<65",1,"WHITE",1,"F","Y","","Y","Week 6",6,null,null,"",null,"DERIVED","Transaminase 1.5 x ULN","TRANSHY",5,"HYLAW",0,0,null,null,null,null,null,null,"","Normal to Normal",1,"","",null],
[24,"CDISCPILOT01","1015","01-701-1015","Placebo",0,"Placebo",0,19725,19906,63,"<65",1,"WHITE",1,"F","Y","","Y","Week 6",6,null,null,"",null,"DERIVED","Total Bili 1.5 x ULN and Transaminase 1.5 x ULN","HYLAW",6,"HYLAW",0,0,null,null,null,null,null,null,"","Normal to Normal",1,"","",null],
[25,"CDISCPILOT01","1015","01-701-1015","Placebo",0,"Placebo",0,19725,19906,63,"<65",1,"WHITE",1,"F","Y","","Y","Week 8",8,63,19787,"WEEK 8",8,"","Alanine Aminotransferase (U/L)","ALT",1,"CHEM",22,27,6,34,3.7,0.6,4.5,0.8,"","",null,"R2A1HI > 1.5","N",0],
[26,"CDISCPILOT01","1015","01-701-1015","Placebo",0,"Placebo",0,19725,19906,63,"<65",1,"WHITE",1,"F","Y","","Y","Week 8",8,63,19787,"WEEK 8",8,"","Aspartate Aminotransferase (U/L)","AST",2,"CHEM",21,40,9,34,2.3,0.6,4.4,1.2,"","",null,"R2A1HI > 1.5","N",0],
[27,"CDISCPILOT01","1015","01-701-1015","Placebo",0,"Placebo",0,19725,19906,63,"<65",1,"WHITE",1,"F","Y","","Y","Week 8",8,63,19787,"WEEK 8",8,"","Bilirubin (umol/L)","BILI",3,"CHEM",8.55,10.26,3,21,2.8,0.4,3.4,0.5,"","",null,"R2A1HI > 1.5","N",0],
[28,"CDISCPILOT01","1015","01-701-1015","Placebo",0,"Placebo",0,19725,19906,63,"<65",1,"WHITE",1,"F","Y","","Y","Week 8",8,null,null,"",null,"DERIVED","Bilirubin 1.5 x ULN","BILIHY",4,"HYLAW",0,0,null,null,null,null,null,null,"","Normal to Normal",1,"","",null],
[29,"CDISCPILOT01","1015","01-701-1015","Placebo",0,"Placebo",0,19725,19906,63,"<65",1,"WHITE",1,"F","Y","","Y","Week 8",8,null,null,"",null,"DERIVED","Transaminase 1.5 x ULN","TRANSHY",5,"HYLAW",0,0,null,null,null,null,null,null,"","Normal to Normal",1,"","",null],
[30,"CDISCPILOT01","1015","01-701-1015","Placebo",0,"Placebo",0,19725,19906,63,"<65",1,"WHITE",1,"F","Y","","Y","Week 8",8,null,null,"",null,"DERIVED","Total Bili 1.5 x ULN and Transaminase 1.5 x ULN","HYLAW",6,"HYLAW",0,0,null,null,null,null,null,null,"","Normal to Normal",1,"","",null],
[31,"CDISCPILOT01","1015","01-701-1015","Placebo",0,"Placebo",0,19725,19906,63,"<65",1,"WHITE",1,"F","Y","","Y","Week 12",12,84,19808,"WEEK 12",9,"","Alanine Aminotransferase (U/L)","ALT",1,"CHEM",27,27,6,34,4.5,0.8,4.5,0.8,"","",null,"R2A1HI > 1.5","N",0],
[32,"CDISCPILOT01","1015","01-701-1015","Placebo",0,"Placebo",0,19725,19906,63,"<65",1,"WHITE",1,"F","Y","","Y","Week 12",12,84,19808,"WEEK 12",9,"","Aspartate Aminotransferase (U/L)","AST",2,"CHEM",22,40,9,34,2.4,0.6,4.4,1.2,"","",null,"R2A1HI > 1.5","N",0],
[33,"CDISCPILOT01","1015","01-701-1015","Placebo",0,"Placebo",0,19725,19906,63,"<65",1,"WHITE",1,"F","Y","","Y","Week 12",12,84,19808,"WEEK 12",9,"","Bilirubin (umol/L)","BILI",3,"CHEM",6.84,10.26,3,21,2.3,0.3,3.4,0.5,"","",null,"R2A1HI > 1.5","N",0],
[34,"CDISCPILOT01","1015","01-701-1015","Placebo",0,"Placebo",0,19725,19906,63,"<65",1,"WHITE",1,"F","Y","","Y","Week 12",12,null,null,"",null,"DERIVED","Bilirubin 1.5 x ULN","BILIHY",4,"HYLAW",0,0,null,null,null,null,null,null,"","Normal to Normal",1,"","",null],
[35,"CDISCPILOT01","1015","01-701-1015","Placebo",0,"Placebo",0,19725,19906,63,"<65",1,"WHITE",1,"F","Y","","Y","Week 12",12,null,null,"",null,"DERIVED","Transaminase 1.5 x ULN","TRANSHY",5,"HYLAW",0,0,null,null,null,null,null,null,"","Normal to Normal",1,"","",null],
[36,"CDISCPILOT01","1015","01-701-1015","Placebo",0,"Placebo",0,19725,19906,63,"<65",1,"WHITE",1,"F","Y","","Y","Week 12",12,null,null,"",null,"DERIVED","Total Bili 1.5 x ULN and Transaminase 1.5 x ULN","HYLAW",6,"HYLAW",0,0,null,null,null,null,null,null,"","Normal to Normal",1,"","",null],
[37,"CDISCPILOT01","1015","01-701-1015","Placebo",0,"Placebo",0,19725,19906,63,"<65",1,"WHITE",1,"F","Y","","Y","Week 16",16,126,19850,"WEEK 16",10,"","Alanine Aminotransferase (U/L)","ALT",1,"CHEM",17,27,6,34,2.8,0.5,4.5,0.8,"","",null,"R2A1HI > 1.5","N",0],
[38,"CDISCPILOT01","1015","01-701-1015","Placebo",0,"Placebo",0,19725,19906,63,"<65",1,"WHITE",1,"F","Y","","Y","Week 16",16,126,19850,"WEEK 16",10,"","Aspartate Aminotransferase (U/L)","AST",2,"CHEM",23,40,9,34,2.6,0.7,4.4,1.2,"","",null,"R2A1HI > 1.5","N",0],
[39,"CDISCPILOT01","1015","01-701-1015","Placebo",0,"Placebo",0,19725,19906,63,"<65",1,"WHITE",1,"F","Y","","Y","Week 16",16,126,19850,"WEEK 16",10,"","Bilirubin (umol/L)","BILI",3,"CHEM",6.84,10.26,3,21,2.3,0.3,3.4,0.5,"","",null,"R2A1HI > 1.5","N",0],
[40,"CDISCPILOT01","1015","01-701-1015","Placebo",0,"Placebo",0,19725,19906,63,"<65",1,"WHITE",1,"F","Y","","Y","Week 16",16,null,null,"",null,"DERIVED","Bilirubin 1.5 x ULN","BILIHY",4,"HYLAW",0,0,null,null,null,null,null,null,"","Normal to Normal",1,"","",null],
[41,"CDISCPILOT01","1015","01-701-1015","Placebo",0,"Placebo",0,19725,19906,63,"<65",1,"WHITE",1,"F","Y","","Y","Week 16",16,null,null,"",null,"DERIVED","Transaminase 1.5 x ULN","TRANSHY",5,"HYLAW",0,0,null,null,null,null,null,null,"","Normal to Normal",1,"","",null],
[42,"CDISCPILOT01","1015","01-701-1015","Placebo",0,"Placebo",0,19725,19906,63,"<65",1,"WHITE",1,"F","Y","","Y","Week 16",16,null,null,"",null,"DERIVED","Total Bili 1.5 x ULN and Transaminase 1.5 x ULN","HYLAW",6,"HYLAW",0,0,null,null,null,null,null,null,"","Normal to Normal",1,"","",null],
[43,"CDISCPILOT01","1015","01-701-1015","Placebo",0,"Placebo",0,19725,19906,63,"<65",1,"WHITE",1,"F","Y","","Y","Week 20",20,140,19864,"WEEK 20",11,"","Alanine Aminotransferase (U/L)","ALT",1,"CHEM",21,27,6,34,3.5,0.6,4.5,0.8,"","",null,"R2A1HI > 1.5","N",0],
[44,"CDISCPILOT01","1015","01-701-1015","Placebo",0,"Placebo",0,19725,19906,63,"<65",1,"WHITE",1,"F","Y","","Y","Week 20",20,140,19864,"WEEK 20",11,"","Aspartate Aminotransferase (U/L)","AST",2,"CHEM",19,40,9,34,2.1,0.6,4.4,1.2,"","",null,"R2A1HI > 1.5","N",0],
[45,"CDISCPILOT01","1015","01-701-1015","Placebo",0,"Placebo",0,19725,19906,63,"<65",1,"WHITE",1,"F","Y","","Y","Week 20",20,140,19864,"WEEK 20",11,"","Bilirubin (umol/L)","BILI",3,"CHEM",6.84,10.26,3,21,2.3,0.3,3.4,0.5,"","",null,"R2A1HI > 1.5","N",0],
[46,"CDISCPILOT01","1015","01-701-1015","Placebo",0,"Placebo",0,19725,19906,63,"<65",1,"WHITE",1,"F","Y","","Y","Week 20",20,null,null,"",null,"DERIVED","Bilirubin 1.5 x ULN","BILIHY",4,"HYLAW",0,0,null,null,null,null,null,null,"","Normal to Normal",1,"","",null],
[47,"CDISCPILOT01","1015","01-701-1015","Placebo",0,"Placebo",0,19725,19906,63,"<65",1,"WHITE",1,"F","Y","","Y","Week 20",20,null,null,"",null,"DERIVED","Transaminase 1.5 x ULN","TRANSHY",5,"HYLAW",0,0,null,null,null,null,null,null,"","Normal to Normal",1,"","",null],
[48,"CDISCPILOT01","1015","01-701-1015","Placebo",0,"Placebo",0,19725,19906,63,"<65",1,"WHITE",1,"F","Y","","Y","Week 20",20,null,null,"",null,"DERIVED","Total Bili 1.5 x ULN and Transaminase 1.5 x ULN","HYLAW",6,"HYLAW",0,0,null,null,null,null,null,null,"","Normal to Normal",1,"","",null],
[49,"CDISCPILOT01","1015","01-701-1015","Placebo",0,"Placebo",0,19725,19906,63,"<65",1,"WHITE",1,"F","Y","","Y","Week 24",24,168,19892,"WEEK 24",12,"","Alanine Aminotransferase (U/L)","ALT",1,"CHEM",23,27,6,34,3.8,0.7,4.5,0.8,"","",null,"R2A1HI > 1.5","N",0],
[50,"CDISCPILOT01","1015","01-701-1015","Placebo",0,"Placebo",0,19725,19906,63,"<65",1,"WHITE",1,"F","Y","","Y","Week 24",24,168,19892,"WEEK 24",12,"","Aspartate Aminotransferase (U/L)","AST",2,"CHEM",23,40,9,34,2.6,0.7,4.4,1.2,"","",null,"R2A1HI > 1.5","N",0],
[51,"CDISCPILOT01","1015","01-701-1015","Placebo",0,"Placebo",0,19725,19906,63,"<65",1,"WHITE",1,"F","Y","","Y","Week 24",24,168,19892,"WEEK 24",12,"","Bilirubin (umol/L)","BILI",3,"CHEM",6.84,10.26,3,21,2.3,0.3,3.4,0.5,"","",null,"R2A1HI > 1.5","N",0],
[52,"CDISCPILOT01","1015","01-701-1015","Placebo",0,"Placebo",0,19725,19906,63,"<65",1,"WHITE",1,"F","Y","","Y","Week 24",24,null,null,"",null,"DERIVED","Bilirubin 1.5 x ULN","BILIHY",4,"HYLAW",0,0,null,null,null,null,null,null,"","Normal to Normal",1,"","",null],
[53,"CDISCPILOT01","1015","01-701-1015","Placebo",0,"Placebo",0,19725,19906,63,"<65",1,"WHITE",1,"F","Y","","Y","Week 24",24,null,null,"",null,"DERIVED","Transaminase 1.5 x ULN","TRANSHY",5,"HYLAW",0,0,null,null,null,null,null,null,"","Normal to Normal",1,"","",null],
[54,"CDISCPILOT01","1015","01-701-1015","Placebo",0,"Placebo",0,19725,19906,63,"<65",1,"WHITE",1,"F","Y","","Y","Week 24",24,null,null,"",null,"DERIVED","Total Bili 1.5 x ULN and Transaminase 1.5 x ULN","HYLAW",6,"HYLAW",0,0,null,null,null,null,null,null,"","Normal to Normal",1,"","",null],
[55,"CDISCPILOT01","1023","01-701-1023","Placebo",0,"Placebo",0,19210,19237,64,"<65",1,"WHITE",1,"M","N","Y","Y","Baseline",0,-14,19196,"SCREENING 1",1,"","Alanine Aminotransferase (U/L)","ALT",1,"CHEM",23,23,6,43,3.8,0.5,3.8,0.5,"Y","",null,"R2A1HI > 1.5","N",0],
[56,"CDISCPILOT01","1023","01-701-1023","Placebo",0,"Placebo",0,19210,19237,64,"<65",1,"WHITE",1,"M","N","Y","Y","Baseline",0,-14,19196,"SCREENING 1",1,"","Aspartate Aminotransferase (U/L)","AST",2,"CHEM",21,21,11,36,1.9,0.6,1.9,0.6,"Y","",null,"R2A1HI > 1.5","N",0],
[57,"CDISCPILOT01","1023","01-701-1023","Placebo",0,"Placebo",0,19210,19237,64,"<65",1,"WHITE",1,"M","N","Y","Y","Baseline",0,-14,19196,"SCREENING 1",1,"","Bilirubin (umol/L)","BILI",3,"CHEM",11.97,11.97,3,21,4,0.6,4,0.6,"Y","",null,"R2A1HI > 1.5","N",0],
[58,"CDISCPILOT01","1023","01-701-1023","Placebo",0,"Placebo",0,19210,19237,64,"<65",1,"WHITE",1,"M","N","Y","Y","Baseline",0,null,null,"",null,"DERIVED","Bilirubin 1.5 x ULN","BILIHY",4,"HYLAW",0,0,null,null,null,null,null,null,"Y","Normal to Normal",1,"","",null],
[59,"CDISCPILOT01","1023","01-701-1023","Placebo",0,"Placebo",0,19210,19237,64,"<65",1,"WHITE",1,"M","N","Y","Y","Baseline",0,null,null,"",null,"DERIVED","Transaminase 1.5 x ULN","TRANSHY",5,"HYLAW",0,0,null,null,null,null,null,null,"Y","Normal to Normal",1,"","",null],
[60,"CDISCPILOT01","1023","01-701-1023","Placebo",0,"Placebo",0,19210,19237,64,"<65",1,"WHITE",1,"M","N","Y","Y","Baseline",0,null,null,"",null,"DERIVED","Total Bili 1.5 x ULN and Transaminase 1.5 x ULN","HYLAW",6,"HYLAW",0,0,null,null,null,null,null,null,"Y","Normal to Normal",1,"","",null],
[61,"CDISCPILOT01","1023","01-701-1023","Placebo",0,"Placebo",0,19210,19237,64,"<65",1,"WHITE",1,"M","N","Y","Y","Week 2",2,23,19232,"WEEK 2",4,"","Alanine Aminotransferase (U/L)","ALT",1,"CHEM",30,23,6,43,5,0.7,3.8,0.5,"","",null,"R2A1HI > 1.5","N",0],
[62,"CDISCPILOT01","1023","01-701-1023","Placebo",0,"Placebo",0,19210,19237,64,"<65",1,"WHITE",1,"M","N","Y","Y","Week 2",2,23,19232,"WEEK 2",4,"","Aspartate Aminotransferase (U/L)","AST",2,"CHEM",25,21,11,36,2.3,0.7,1.9,0.6,"","",null,"R2A1HI > 1.5","N",0],
[63,"CDISCPILOT01","1023","01-701-1023","Placebo",0,"Placebo",0,19210,19237,64,"<65",1,"WHITE",1,"M","N","Y","Y","Week 2",2,23,19232,"WEEK 2",4,"","Bilirubin (umol/L)","BILI",3,"CHEM",6.84,11.97,3,21,2.3,0.3,4,0.6,"","",null,"R2A1HI > 1.5","N",0],
[64,"CDISCPILOT01","1023","01-701-1023","Placebo",0,"Placebo",0,19210,19237,64,"<65",1,"WHITE",1,"M","N","Y","Y","Week 2",2,null,null,"",null,"DERIVED","Bilirubin 1.5 x ULN","BILIHY",4,"HYLAW",0,0,null,null,null,null,null,null,"","Normal to Normal",1,"","",null],
[65,"CDISCPILOT01","1023","01-701-1023","Placebo",0,"Placebo",0,19210,19237,64,"<65",1,"WHITE",1,"M","N","Y","Y","Week 2",2,null,null,"",null,"DERIVED","Transaminase 1.5 x ULN","TRANSHY",5,"HYLAW",0,0,null,null,null,null,null,null,"","Normal to Normal",1,"","",null],
[66,"CDISCPILOT01","1023","01-701-1023","Placebo",0,"Placebo",0,19210,19237,64,"<65",1,"WHITE",1,"M","N","Y","Y","Week 2",2,null,null,"",null,"DERIVED","Total Bili 1.5 x ULN and Transaminase 1.5 x ULN","HYLAW",6,"HYLAW",0,0,null,null,null,null,null,null,"","Normal to Normal",1,"","",null],
[67,"CDISCPILOT01","1023","01-701-1023","Placebo",0,"Placebo",0,19210,19237,64,"<65",1,"WHITE",1,"M","N","Y","Y","Week 4",4,29,19238,"WEEK 4",5,"","Alanine Aminotransferase (U/L)","ALT",1,"CHEM",38,23,6,43,6.3,0.9,3.8,0.5,"","",null,"R2A1HI > 1.5","N",0],
[68,"CDISCPILOT01","1023","01-701-1023","Placebo",0,"Placebo",0,19210,19237,64,"<65",1,"WHITE",1,"M","N","Y","Y","Week 4",4,29,19238,"WEEK 4",5,"","Aspartate Aminotransferase (U/L)","AST",2,"CHEM",30,21,11,36,2.7,0.8,1.9,0.6,"","",null,"R2A1HI > 1.5","N",0],
[69,"CDISCPILOT01","1023","01-701-1023","Placebo",0,"Placebo",0,19210,19237,64,"<65",1,"WHITE",1,"M","N","Y","Y","Week 4",4,29,19238,"WEEK 4",5,"","Bilirubin (umol/L)","BILI",3,"CHEM",8.55,11.97,3,21,2.8,0.4,4,0.6,"","",null,"R2A1HI > 1.5","N",0],
[70,"CDISCPILOT01","1023","01-701-1023","Placebo",0,"Placebo",0,19210,19237,64,"<65",1,"WHITE",1,"M","N","Y","Y","Week 4",4,null,null,"",null,"DERIVED","Bilirubin 1.5 x ULN","BILIHY",4,"HYLAW",0,0,null,null,null,null,null,null,"","Normal to Normal",1,"","",null],
[71,"CDISCPILOT01","1023","01-701-1023","Placebo",0,"Placebo",0,19210,19237,64,"<65",1,"WHITE",1,"M","N","Y","Y","Week 4",4,null,null,"",null,"DERIVED","Transaminase 1.5 x ULN","TRANSHY",5,"HYLAW",0,0,null,null,null,null,null,null,"","Normal to Normal",1,"","",null],
[72,"CDISCPILOT01","1023","01-701-1023","Placebo",0,"Placebo",0,19210,19237,64,"<65",1,"WHITE",1,"M","N","Y","Y","Week 4",4,null,null,"",null,"DERIVED","Total Bili 1.5 x ULN and Transaminase 1.5 x ULN","HYLAW",6,"HYLAW",0,0,null,null,null,null,null,null,"","Normal to Normal",1,"","",null],
[73,"CDISCPILOT01","1028","01-701-1028","Xanomeline High Dose",81,"Xanomeline High Dose",81,19558,19737,71,"65-80",2,"WHITE",1,"M","Y","","Y","Baseline",0,-8,19550,"SCREENING 1",1,"","Alanine Aminotransferase (U/L)","ALT",1,"CHEM",26,26,6,35,4.3,0.7,4.3,0.7,"Y","",null,"R2A1HI > 1.5","N",0],
[74,"CDISCPILOT01","1028","01-701-1028","Xanomeline High Dose",81,"Xanomeline High Dose",81,19558,19737,71,"65-80",2,"WHITE",1,"M","Y","","Y","Baseline",0,-8,19550,"SCREENING 1",1,"","Aspartate Aminotransferase (U/L)","AST",2,"CHEM",24,24,11,36,2.2,0.7,2.2,0.7,"Y","",null,"R2A1HI > 1.5","N",0],
[75,"CDISCPILOT01","1028","01-701-1028","Xanomeline High Dose",81,"Xanomeline High Dose",81,19558,19737,71,"65-80",2,"WHITE",1,"M","Y","","Y","Baseline",0,-8,19550,"SCREENING 1",1,"","Bilirubin (umol/L)","BILI",3,"CHEM",18.81,18.81,3,21,6.3,0.9,6.3,0.9,"Y","",null,"R2A1HI > 1.5","N",0],
[76,"CDISCPILOT01","1028","01-701-1028","Xanomeline High Dose",81,"Xanomeline High Dose",81,19558,19737,71,"65-80",2,"WHITE",1,"M","Y","","Y","Baseline",0,null,null,"",null,"DERIVED","Bilirubin 1.5 x ULN","BILIHY",4,"HYLAW",0,0,null,null,null,null,null,null,"Y","Normal to Normal",1,"","",null],
[77,"CDISCPILOT01","1028","01-701-1028","Xanomeline High Dose",81,"Xanomeline High Dose",81,19558,19737,71,"65-80",2,"WHITE",1,"M","Y","","Y","Baseline",0,null,null,"",null,"DERIVED","Transaminase 1.5 x ULN","TRANSHY",5,"HYLAW",0,0,null,null,null,null,null,null,"Y","Normal to Normal",1,"","",null],
[78,"CDISCPILOT01","1028","01-701-1028","Xanomeline High Dose",81,"Xanomeline High Dose",81,19558,19737,71,"65-80",2,"WHITE",1,"M","Y","","Y","Baseline",0,null,null,"",null,"DERIVED","Total Bili 1.5 x ULN and Transaminase 1.5 x ULN","HYLAW",6,"HYLAW",0,0,null,null,null,null,null,null,"Y","Normal to Normal",1,"","",null],
[79,"CDISCPILOT01","1028","01-701-1028","Xanomeline High Dose",81,"Xanomeline High Dose",81,19558,19737,71,"65-80",2,"WHITE",1,"M","Y","","Y","Week 2",2,14,19571,"WEEK 2",4,"","Alanine Aminotransferase (U/L)","ALT",1,"CHEM",30,26,6,35,5,0.9,4.3,0.7,"","",null,"R2A1HI > 1.5","N",0],
[80,"CDISCPILOT01","1028","01-701-1028","Xanomeline High Dose",81,"Xanomeline High Dose",81,19558,19737,71,"65-80",2,"WHITE",1,"M","Y","","Y","Week 2",2,14,19571,"WEEK 2",4,"","Aspartate Aminotransferase (U/L)","AST",2,"CHEM",23,24,11,36,2.1,0.6,2.2,0.7,"","",null,"R2A1HI > 1.5","N",0],
[81,"CDISCPILOT01","1028","01-701-1028","Xanomeline High Dose",81,"Xanomeline High Dose",81,19558,19737,71,"65-80",2,"WHITE",1,"M","Y","","Y","Week 2",2,14,19571,"WEEK 2",4,"","Bilirubin (umol/L)","BILI",3,"CHEM",11.97,18.81,3,21,4,0.6,6.3,0.9,"","",null,"R2A1HI > 1.5","N",0],
[82,"CDISCPILOT01","1028","01-701-1028","Xanomeline High Dose",81,"Xanomeline High Dose",81,19558,19737,71,"65-80",2,"WHITE",1,"M","Y","","Y","Week 2",2,null,null,"",null,"DERIVED","Bilirubin 1.5 x ULN","BILIHY",4,"HYLAW",0,0,null,null,null,null,null,null,"","Normal to Normal",1,"","",null],
[83,"CDISCPILOT01","1028","01-701-1028","Xanomeline High Dose",81,"Xanomeline High Dose",81,19558,19737,71,"65-80",2,"WHITE",1,"M","Y","","Y","Week 2",2,null,null,"",null,"DERIVED","Transaminase 1.5 x ULN","TRANSHY",5,"HYLAW",0,0,null,null,null,null,null,null,"","Normal to Normal",1,"","",null],
[84,"CDISCPILOT01","1028","01-701-1028","Xanomeline High Dose",81,"Xanomeline High Dose",81,19558,19737,71,"65-80",2,"WHITE",1,"M","Y","","Y","Week 2",2,null,null,"",null,"DERIVED","Total Bili 1.5 x ULN and Transaminase 1.5 x ULN","HYLAW",6,"HYLAW",0,0,null,null,null,null,null,null,"","Normal to Normal",1,"","",null],
[85,"CDISCPILOT01","1028","01-701-1028","Xanomeline High Dose",81,"Xanomeline High Dose",81,19558,19737,71,"65-80",2,"WHITE",1,"M","Y","","Y","Week 4",4,27,19584,"WEEK 4",5,"","Alanine Aminotransferase (U/L)","ALT",1,"CHEM",29,26,6,35,4.8,0.8,4.3,0.7,"","",null,"R2A1HI > 1.5","N",0],
[86,"CDISCPILOT01","1028","01-701-1028","Xanomeline High Dose",81,"Xanomeline High Dose",81,19558,19737,71,"65-80",2,"WHITE",1,"M","Y","","Y","Week 4",4,27,19584,"WEEK 4",5,"","Aspartate Aminotransferase (U/L)","AST",2,"CHEM",24,24,11,36,2.2,0.7,2.2,0.7,"","",null,"R2A1HI > 1.5","N",0],
[87,"CDISCPILOT01","1028","01-701-1028","Xanomeline High Dose",81,"Xanomeline High Dose",81,19558,19737,71,"65-80",2,"WHITE",1,"M","Y","","Y","Week 4",4,27,19584,"WEEK 4",5,"","Bilirubin (umol/L)","BILI",3,"CHEM",13.68,18.81,3,21,4.6,0.7,6.3,0.9,"","",null,"R2A1HI > 1.5","N",0],
[88,"CDISCPILOT01","1028","01-701-1028","Xanomeline High Dose",81,"Xanomeline High Dose",81,19558,19737,71,"65-80",2,"WHITE",1,"M","Y","","Y","Week 4",4,null,null,"",null,"DERIVED","Bilirubin 1.5 x ULN","BILIHY",4,"HYLAW",0,0,null,null,null,null,null,null,"","Normal to Normal",1,"","",null],
[89,"CDISCPILOT01","1028","01-701-1028","Xanomeline High Dose",81,"Xanomeline High Dose",81,19558,19737,71,"65-80",2,"WHITE",1,"M","Y","","Y","Week 4",4,null,null,"",null,"DERIVED","Transaminase 1.5 x ULN","TRANSHY",5,"HYLAW",0,0,null,null,null,null,null,null,"","Normal to Normal",1,"","",null],
[90,"CDISCPILOT01","1028","01-701-1028","Xanomeline High Dose",81,"Xanomeline High Dose",81,19558,19737,71,"65-80",2,"WHITE",1,"M","Y","","Y","Week 4",4,null,null,"",null,"DERIVED","Total Bili 1.5 x ULN and Transaminase 1.5 x ULN","HYLAW",6,"HYLAW",0,0,null,null,null,null,null,null,"","Normal to Normal",1,"","",null],
[91,"CDISCPILOT01","1028","01-701-1028","Xanomeline High Dose",81,"Xanomeline High Dose",81,19558,19737,71,"65-80",2,"WHITE",1,"M","Y","","Y","Week 6",6,42,19599,"WEEK 6",7,"","Alanine Aminotransferase (U/L)","ALT",1,"CHEM",32,26,6,35,5.3,0.9,4.3,0.7,"","",null,"R2A1HI > 1.5","N",0],
[92,"CDISCPILOT01","1028","01-701-1028","Xanomeline High Dose",81,"Xanomeline High Dose",81,19558,19737,71,"65-80",2,"WHITE",1,"M","Y","","Y","Week 6",6,42,19599,"WEEK 6",7,"","Aspartate Aminotransferase (U/L)","AST",2,"CHEM",26,24,11,36,2.4,0.7,2.2,0.7,"","",null,"R2A1HI > 1.5","N",0],
[93,"CDISCPILOT01","1028","01-701-1028","Xanomeline High Dose",81,"Xanomeline High Dose",81,19558,19737,71,"65-80",2,"WHITE",1,"M","Y","","Y","Week 6",6,42,19599,"WEEK 6",7,"","Bilirubin (umol/L)","BILI",3,"CHEM",11.97,18.81,3,21,4,0.6,6.3,0.9,"","",null,"R2A1HI > 1.5","N",0],
[94,"CDISCPILOT01","1028","01-701-1028","Xanomeline High Dose",81,"Xanomeline High Dose",81,19558,19737,71,"65-80",2,"WHITE",1,"M","Y","","Y","Week 6",6,null,null,"",null,"DERIVED","Bilirubin 1.5 x ULN","BILIHY",4,"HYLAW",0,0,null,null,null,null,null,null,"","Normal to Normal",1,"","",null],
[95,"CDISCPILOT01","1028","01-701-1028","Xanomeline High Dose",81,"Xanomeline High Dose",81,19558,19737,71,"65-80",2,"WHITE",1,"M","Y","","Y","Week 6",6,null,null,"",null,"DERIVED","Transaminase 1.5 x ULN","TRANSHY",5,"HYLAW",0,0,null,null,null,null,null,null,"","Normal to Normal",1,"","",null],
[96,"CDISCPILOT01","1028","01-701-1028","Xanomeline High Dose",81,"Xanomeline High Dose",81,19558,19737,71,"65-80",2,"WHITE",1,"M","Y","","Y","Week 6",6,null,null,"",null,"DERIVED","Total Bili 1.5 x ULN and Transaminase 1.5 x ULN","HYLAW",6,"HYLAW",0,0,null,null,null,null,null,null,"","Normal to Normal",1,"","",null],
[97,"CDISCPILOT01","1028","01-701-1028","Xanomeline High Dose",81,"Xanomeline High Dose",81,19558,19737,71,"65-80",2,"WHITE",1,"M","Y","","Y","Week 8",8,54,19611,"WEEK 8",8,"","Alanine Aminotransferase (U/L)","ALT",1,"CHEM",33,26,6,35,5.5,0.9,4.3,0.7,"","",null,"R2A1HI > 1.5","N",0],
[98,"CDISCPILOT01","1028","01-701-1028","Xanomeline High Dose",81,"Xanomeline High Dose",81,19558,19737,71,"65-80",2,"WHITE",1,"M","Y","","Y","Week 8",8,54,19611,"WEEK 8",8,"","Aspartate Aminotransferase (U/L)","AST",2,"CHEM",28,24,11,36,2.5,0.8,2.2,0.7,"","",null,"R2A1HI > 1.5","N",0],
[99,"CDISCPILOT01","1028","01-701-1028","Xanomeline High Dose",81,"Xanomeline High Dose",81,19558,19737,71,"65-80",2,"WHITE",1,"M","Y","","Y","Week 8",8,54,19611,"WEEK 8",8,"","Bilirubin (umol/L)","BILI",3,"CHEM",13.68,18.81,3,21,4.6,0.7,6.3,0.9,"","",null,"R2A1HI > 1.5","N",0],
[100,"CDISCPILOT01","1028","01-701-1028","Xanomeline High Dose",81,"Xanomeline High Dose",81,19558,19737,71,"65-80",2,"WHITE",1,"M","Y","","Y","Week 8",8,null,null,"",null,"DERIVED","Bilirubin 1.5 x ULN","BILIHY",4,"HYLAW",0,0,null,null,null,null,null,null,"","Normal to Normal",1,"","",null],
[101,"CDISCPILOT01","1028","01-701-1028","Xanomeline High Dose",81,"Xanomeline High Dose",81,19558,19737,71,"65-80",2,"WHITE",1,"M","Y","","Y","Week 8",8,null,null,"",null,"DERIVED","Transaminase 1.5 x ULN","TRANSHY",5,"HYLAW",0,0,null,null,null,null,null,null,"","Normal to Normal",1,"","",null],
[102,"CDISCPILOT01","1028","01-701-1028","Xanomeline High Dose",81,"Xanomeline High Dose",81,19558,19737,71,"65-80",2,"WHITE",1,"M","Y","","Y","Week 8",8,null,null,"",null,"DERIVED","Total Bili 1.5 x ULN and Transaminase 1.5 x ULN","HYLAW",6,"HYLAW",0,0,null,null,null,null,null,null,"","Normal to Normal",1,"","",null],
[103,"CDISCPILOT01","1028","01-701-1028","Xanomeline High Dose",81,"Xanomeline High Dose",81,19558,19737,71,"65-80",2,"WHITE",1,"M","Y","","Y","Week 12",12,83,19640,"WEEK 12",9,"","Alanine Aminotransferase (U/L)","ALT",1,"CHEM",29,26,6,35,4.8,0.8,4.3,0.7,"","",null,"R2A1HI > 1.5","N",0],
[104,"CDISCPILOT01","1028","01-701-1028","Xanomeline High Dose",81,"Xanomeline High Dose",81,19558,19737,71,"65-80",2,"WHITE",1,"M","Y","","Y","Week 12",12,83,19640,"WEEK 12",9,"","Aspartate Aminotransferase (U/L)","AST",2,"CHEM",28,24,11,36,2.5,0.8,2.2,0.7,"","",null,"R2A1HI > 1.5","N",0],
[105,"CDISCPILOT01","1028","01-701-1028","Xanomeline High Dose",81,"Xanomeline High Dose",81,19558,19737,71,"65-80",2,"WHITE",1,"M","Y","","Y","Week 12",12,83,19640,"WEEK 12",9,"","Bilirubin (umol/L)","BILI",3,"CHEM",13.68,18.81,3,21,4.6,0.7,6.3,0.9,"","",null,"R2A1HI > 1.5","N",0],
[106,"CDISCPILOT01","1028","01-701-1028","Xanomeline High Dose",81,"Xanomeline High Dose",81,19558,19737,71,"65-80",2,"WHITE",1,"M","Y","","Y","Week 12",12,null,null,"",null,"DERIVED","Bilirubin 1.5 x ULN","BILIHY",4,"HYLAW",0,0,null,null,null,null,null,null,"","Normal to Normal",1,"","",null],
[107,"CDISCPILOT01","1028","01-701-1028","Xanomeline High Dose",81,"Xanomeline High Dose",81,19558,19737,71,"65-80",2,"WHITE",1,"M","Y","","Y","Week 12",12,null,null,"",null,"DERIVED","Transaminase 1.5 x ULN","TRANSHY",5,"HYLAW",0,0,null,null,null,null,null,null,"","Normal to Normal",1,"","",null],
[108,"CDISCPILOT01","1028","01-701-1028","Xanomeline High Dose",81,"Xanomeline High Dose",81,19558,19737,71,"65-80",2,"WHITE",1,"M","Y","","Y","Week 12",12,null,null,"",null,"DERIVED","Total Bili 1.5 x ULN and Transaminase 1.5 x ULN","HYLAW",6,"HYLAW",0,0,null,null,null,null,null,null,"","Normal to Normal",1,"","",null],
[109,"CDISCPILOT01","1028","01-701-1028","Xanomeline High Dose",81,"Xanomeline High Dose",81,19558,19737,71,"65-80",2,"WHITE",1,"M","Y","","Y","Week 16",16,111,19668,"WEEK 16",10,"","Alanine Aminotransferase (U/L)","ALT",1,"CHEM",24,26,6,35,4,0.7,4.3,0.7,"","",null,"R2A1HI > 1.5","N",0],
[110,"CDISCPILOT01","1028","01-701-1028","Xanomeline High Dose",81,"Xanomeline High Dose",81,19558,19737,71,"65-80",2,"WHITE",1,"M","Y","","Y","Week 16",16,111,19668,"WEEK 16",10,"","Aspartate Aminotransferase (U/L)","AST",2,"CHEM",18,24,11,36,1.6,0.5,2.2,0.7,"","",null,"R2A1HI > 1.5","N",0],
[111,"CDISCPILOT01","1028","01-701-1028","Xanomeline High Dose",81,"Xanomeline High Dose",81,19558,19737,71,"65-80",2,"WHITE",1,"M","Y","","Y","Week 16",16,111,19668,"WEEK 16",10,"","Bilirubin (umol/L)","BILI",3,"CHEM",11.97,18.81,3,21,4,0.6,6.3,0.9,"","",null,"R2A1HI > 1.5","N",0],
[112,"CDISCPILOT01","1028","01-701-1028","Xanomeline High Dose",81,"Xanomeline High Dose",81,19558,19737,71,"65-80",2,"WHITE",1,"M","Y","","Y","Week 16",16,null,null,"",null,"DERIVED","Bilirubin 1.5 x ULN","BILIHY",4,"HYLAW",0,0,null,null,null,null,null,null,"","Normal to Normal",1,"","",null],
[113,"CDISCPILOT01","1028","01-701-1028","Xanomeline High Dose",81,"Xanomeline High Dose",81,19558,19737,71,"65-80",2,"WHITE",1,"M","Y","","Y","Week 16",16,null,null,"",null,"DERIVED","Transaminase 1.5 x ULN","TRANSHY",5,"HYLAW",0,0,null,null,null,null,null,null,"","Normal to Normal",1,"","",null],
[114,"CDISCPILOT01","1028","01-701-1028","Xanomeline High Dose",81,"Xanomeline High Dose",81,19558,19737,71,"65-80",2,"WHITE",1,"M","Y","","Y","Week 16",16,null,null,"",null,"DERIVED","Total Bili 1.5 x ULN and Transaminase 1.5 x ULN","HYLAW",6,"HYLAW",0,0,null,null,null,null,null,null,"","Normal to Normal",1,"","",null],
[115,"CDISCPILOT01","1028","01-701-1028","Xanomeline High Dose",81,"Xanomeline High Dose",81,19558,19737,71,"65-80",2,"WHITE",1,"M","Y","","Y","Week 20",20,139,19696,"WEEK 20",11,"","Alanine Aminotransferase (U/L)","ALT",1,"CHEM",22,26,6,35,3.7,0.6,4.3,0.7,"","",null,"R2A1HI > 1.5","N",0],
[116,"CDISCPILOT01","1028","01-701-1028","Xanomeline High Dose",81,"Xanomeline High Dose",81,19558,19737,71,"65-80",2,"WHITE",1,"M","Y","","Y","Week 20",20,139,19696,"WEEK 20",11,"","Aspartate Aminotransferase (U/L)","AST",2,"CHEM",21,24,11,36,1.9,0.6,2.2,0.7,"","",null,"R2A1HI > 1.5","N",0],
[117,"CDISCPILOT01","1028","01-701-1028","Xanomeline High Dose",81,"Xanomeline High Dose",81,19558,19737,71,"65-80",2,"WHITE",1,"M","Y","","Y","Week 20",20,139,19696,"WEEK 20",11,"","Bilirubin (umol/L)","BILI",3,"CHEM",13.68,18.81,3,21,4.6,0.7,6.3,0.9,"","",null,"R2A1HI > 1.5","N",0],
[118,"CDISCPILOT01","1028","01-701-1028","Xanomeline High Dose",81,"Xanomeline High Dose",81,19558,19737,71,"65-80",2,"WHITE",1,"M","Y","","Y","Week 20",20,null,null,"",null,"DERIVED","Bilirubin 1.5 x ULN","BILIHY",4,"HYLAW",0,0,null,null,null,null,null,null,"","Normal to Normal",1,"","",null],
[119,"CDISCPILOT01","1028","01-701-1028","Xanomeline High Dose",81,"Xanomeline High Dose",81,19558,19737,71,"65-80",2,"WHITE",1,"M","Y","","Y","Week 20",20,null,null,"",null,"DERIVED","Transaminase 1.5 x ULN","TRANSHY",5,"HYLAW",0,0,null,null,null,null,null,null,"","Normal to Normal",1,"","",null],
[120,"CDISCPILOT01","1028","01-701-1028","Xanomeline High Dose",81,"Xanomeline High Dose",81,19558,19737,71,"65-80",2,"WHITE",1,"M","Y","","Y","Week 20",20,null,null,"",null,"DERIVED","Total Bili 1.5 x ULN and Transaminase 1.5 x ULN","HYLAW",6,"HYLAW",0,0,null,null,null,null,null,null,"","Normal to Normal",1,"","",null],
[121,"CDISCPILOT01","1028","01-701-1028","Xanomeline High Dose",81,"Xanomeline High Dose",81,19558,19737,71,"65-80",2,"WHITE",1,"M","Y","","Y","Week 24",24,172,19729,"WEEK 24",12,"","Alanine Aminotransferase (U/L)","ALT",1,"CHEM",24,26,6,35,4,0.7,4.3,0.7,"","",null,"R2A1HI > 1.5","N",0],
[122,"CDISCPILOT01","1028","01-701-1028","Xanomeline High Dose",81,"Xanomeline High Dose",81,19558,19737,71,"65-80",2,"WHITE",1,"M","Y","","Y","Week 24",24,172,19729,"WEEK 24",12,"","Aspartate Aminotransferase (U/L)","AST",2,"CHEM",23,24,11,36,2.1,0.6,2.2,0.7,"","",null,"R2A1HI > 1.5","N",0],
[123,"CDISCPILOT01","1028","01-701-1028","Xanomeline High Dose",81,"Xanomeline High Dose",81,19558,19737,71,"65-80",2,"WHITE",1,"M","Y","","Y","Week 24",24,172,19729,"WEEK 24",12,"","Bilirubin (umol/L)","BILI",3,"CHEM",15.39,18.81,3,21,5.1,0.7,6.3,0.9,"","",null,"R2A1HI > 1.5","N",0],
[124,"CDISCPILOT01","1028","01-701-1028","Xanomeline High Dose",81,"Xanomeline High Dose",81,19558,19737,71,"65-80",2,"WHITE",1,"M","Y","","Y","Week 24",24,null,null,"",null,"DERIVED","Bilirubin 1.5 x ULN","BILIHY",4,"HYLAW",0,0,null,null,null,null,null,null,"","Normal to Normal",1,"","",null],
[125,"CDISCPILOT01","1028","01-701-1028","Xanomeline High Dose",81,"Xanomeline High Dose",81,19558,19737,71,"65-80",2,"WHITE",1,"M","Y","","Y","Week 24",24,null,null,"",null,"DERIVED","Transaminase 1.5 x ULN","TRANSHY",5,"HYLAW",0,0,null,null,null,null,null,null,"","Normal to Normal",1,"","",null],
[126,"CDISCPILOT01","1028","01-701-1028","Xanomeline High Dose",81,"Xanomeline High Dose",81,19558,19737,71,"65-80",2,"WHITE",1,"M","Y","","Y","Week 24",24,null,null,"",null,"DERIVED","Total Bili 1.5 x ULN and Transaminase 1.5 x ULN","HYLAW",6,"HYLAW",0,0,null,null,null,null,null,null,"","Normal to Normal",1,"","",null],
[127,"CDISCPILOT01","1033","01-701-1033","Xanomeline Low Dose",54,"Xanomeline Low Dose",54,19800,19813,74,"65-80",2,"WHITE",1,"M","N","","Y","Baseline",0,-8,19792,"SCREENING 1",1,"","Alanine Aminotransferase (U/L)","ALT",1,"CHEM",16,16,6,35,2.7,0.5,2.7,0.5,"Y","",null,"R2A1HI > 1.5","N",0],
[128,"CDISCPILOT01","1033","01-701-1033","Xanomeline Low Dose",54,"Xanomeline Low Dose",54,19800,19813,74,"65-80",2,"WHITE",1,"M","N","","Y","Baseline",0,-8,19792,"SCREENING 1",1,"","Aspartate Aminotransferase (U/L)","AST",2,"CHEM",20,20,11,36,1.8,0.6,1.8,0.6,"Y","",null,"R2A1HI > 1.5","N",0],
[129,"CDISCPILOT01","1033","01-701-1033","Xanomeline Low Dose",54,"Xanomeline Low Dose",54,19800,19813,74,"65-80",2,"WHITE",1,"M","N","","Y","Baseline",0,-8,19792,"SCREENING 1",1,"","Bilirubin (umol/L)","BILI",3,"CHEM",13.68,13.68,3,21,4.6,0.7,4.6,0.7,"Y","",null,"R2A1HI > 1.5","N",0],
[130,"CDISCPILOT01","1033","01-701-1033","Xanomeline Low Dose",54,"Xanomeline Low Dose",54,19800,19813,74,"65-80",2,"WHITE",1,"M","N","","Y","Baseline",0,null,null,"",null,"DERIVED","Bilirubin 1.5 x ULN","BILIHY",4,"HYLAW",0,0,null,null,null,null,null,null,"Y","Normal to Normal",1,"","",null],
[131,"CDISCPILOT01","1033","01-701-1033","Xanomeline Low Dose",54,"Xanomeline Low Dose",54,19800,19813,74,"65-80",2,"WHITE",1,"M","N","","Y","Baseline",0,null,null,"",null,"DERIVED","Transaminase 1.5 x ULN","TRANSHY",5,"HYLAW",0,0,null,null,null,null,null,null,"Y","Normal to Normal",1,"","",null],
[132,"CDISCPILOT01","1033","01-701-1033","Xanomeline Low Dose",54,"Xanomeline Low Dose",54,19800,19813,74,"65-80",2,"WHITE",1,"M","N","","Y","Baseline",0,null,null,"",null,"DERIVED","Total Bili 1.5 x ULN and Transaminase 1.5 x ULN","HYLAW",6,"HYLAW",0,0,null,null,null,null,null,null,"Y","Normal to Normal",1,"","",null],
[133,"CDISCPILOT01","1033","01-701-1033","Xanomeline Low Dose",54,"Xanomeline Low Dose",54,19800,19813,74,"65-80",2,"WHITE",1,"M","N","","Y","Week 2",2,15,19814,"WEEK 2",4,"","Alanine Aminotransferase (U/L)","ALT",1,"CHEM",35,16,6,35,5.8,1,2.7,0.5,"","",null,"R2A1HI > 1.5","N",0],
[134,"CDISCPILOT01","1033","01-701-1033","Xanomeline Low Dose",54,"Xanomeline Low Dose",54,19800,19813,74,"65-80",2,"WHITE",1,"M","N","","Y","Week 2",2,15,19814,"WEEK 2",4,"","Aspartate Aminotransferase (U/L)","AST",2,"CHEM",26,20,11,36,2.4,0.7,1.8,0.6,"","",null,"R2A1HI > 1.5","N",0],
[135,"CDISCPILOT01","1033","01-701-1033","Xanomeline Low Dose",54,"Xanomeline Low Dose",54,19800,19813,74,"65-80",2,"WHITE",1,"M","N","","Y","Week 2",2,15,19814,"WEEK 2",4,"","Bilirubin (umol/L)","BILI",3,"CHEM",6.84,13.68,3,21,2.3,0.3,4.6,0.7,"","",null,"R2A1HI > 1.5","N",0],
[136,"CDISCPILOT01","1033","01-701-1033","Xanomeline Low Dose",54,"Xanomeline Low Dose",54,19800,19813,74,"65-80",2,"WHITE",1,"M","N","","Y","Week 2",2,null,null,"",null,"DERIVED","Bilirubin 1.5 x ULN","BILIHY",4,"HYLAW",0,0,null,null,null,null,null,null,"","Normal to Normal",1,"","",null],
[137,"CDISCPILOT01","1033","01-701-1033","Xanomeline Low Dose",54,"Xanomeline Low Dose",54,19800,19813,74,"65-80",2,"WHITE",1,"M","N","","Y","Week 2",2,null,null,"",null,"DERIVED","Transaminase 1.5 x ULN","TRANSHY",5,"HYLAW",0,0,null,null,null,null,null,null,"","Normal to Normal",1,"","",null],
[138,"CDISCPILOT01","1033","01-701-1033","Xanomeline Low Dose",54,"Xanomeline Low Dose",54,19800,19813,74,"65-80",2,"WHITE",1,"M","N","","Y","Week 2",2,null,null,"",null,"DERIVED","Total Bili 1.5 x ULN and Transaminase 1.5 x ULN","HYLAW",6,"HYLAW",0,0,null,null,null,null,null,null,"","Normal to Normal",1,"","",null],
[139,"CDISCPILOT01","1033","01-701-1033","Xanomeline Low Dose",54,"Xanomeline Low Dose",54,19800,19813,74,"65-80",2,"WHITE",1,"M","N","","Y","Week 4",4,28,19827,"WEEK 4",5,"","Alanine Aminotransferase (U/L)","ALT",1,"CHEM",14,16,6,35,2.3,0.4,2.7,0.5,"","",null,"R2A1HI > 1.5","N",0],
[140,"CDISCPILOT01","1033","01-701-1033","Xanomeline Low Dose",54,"Xanomeline Low Dose",54,19800,19813,74,"65-80",2,"WHITE",1,"M","N","","Y","Week 4",4,28,19827,"WEEK 4",5,"","Aspartate Aminotransferase (U/L)","AST",2,"CHEM",20,20,11,36,1.8,0.6,1.8,0.6,"","",null,"R2A1HI > 1.5","N",0],
[141,"CDISCPILOT01","1033","01-701-1033","Xanomeline Low Dose",54,"Xanomeline Low Dose",54,19800,19813,74,"65-80",2,"WHITE",1,"M","N","","Y","Week 4",4,28,19827,"WEEK 4",5,"","Bilirubin (umol/L)","BILI",3,"CHEM",15.39,13.68,3,21,5.1,0.7,4.6,0.7,"","",null,"R2A1HI > 1.5","N",0],
[142,"CDISCPILOT01","1033","01-701-1033","Xanomeline Low Dose",54,"Xanomeline Low Dose",54,19800,19813,74,"65-80",2,"WHITE",1,"M","N","","Y","Week 4",4,null,null,"",null,"DERIVED","Bilirubin 1.5 x ULN","BILIHY",4,"HYLAW",0,0,null,null,null,null,null,null,"","Normal to Normal",1,"","",null],
[143,"CDISCPILOT01","1033","01-701-1033","Xanomeline Low Dose",54,"Xanomeline Low Dose",54,19800,19813,74,"65-80",2,"WHITE",1,"M","N","","Y","Week 4",4,null,null,"",null,"DERIVED","Transaminase 1.5 x ULN","TRANSHY",5,"HYLAW",0,0,null,null,null,null,null,null,"","Normal to Normal",1,"","",null],
[144,"CDISCPILOT01","1033","01-701-1033","Xanomeline Low Dose",54,"Xanomeline Low Dose",54,19800,19813,74,"65-80",2,"WHITE",1,"M","N","","Y","Week 4",4,null,null,"",null,"DERIVED","Total Bili 1.5 x ULN and Transaminase 1.5 x ULN","HYLAW",6,"HYLAW",0,0,null,null,null,null,null,null,"","Normal to Normal",1,"","",null],
[145,"CDISCPILOT01","1034","01-701-1034","Xanomeline High Dose",81,"Xanomeline High Dose",81,19905,20087,77,"65-80",2,"WHITE",1,"F","Y","","Y","Baseline",0,-7,19898,"SCREENING 1",1,"","Alanine Aminotransferase (U/L)","ALT",1,"CHEM",15,15,6,32,2.5,0.5,2.5,0.5,"Y","",null,"R2A1HI > 1.5","N",0],
[146,"CDISCPILOT01","1034","01-701-1034","Xanomeline High Dose",81,"Xanomeline High Dose",81,19905,20087,77,"65-80",2,"WHITE",1,"F","Y","","Y","Baseline",0,-7,19898,"SCREENING 1",1,"","Aspartate Aminotransferase (U/L)","AST",2,"CHEM",23,23,9,34,2.6,0.7,2.6,0.7,"Y","",null,"R2A1HI > 1.5","N",0],
[147,"CDISCPILOT01","1034","01-701-1034","Xanomeline High Dose",81,"Xanomeline High Dose",81,19905,20087,77,"65-80",2,"WHITE",1,"F","Y","","Y","Baseline",0,-7,19898,"SCREENING 1",1,"","Bilirubin (umol/L)","BILI",3,"CHEM",10.26,10.26,3,21,3.4,0.5,3.4,0.5,"Y","",null,"R2A1HI > 1.5","N",0],
[148,"CDISCPILOT01","1034","01-701-1034","Xanomeline High Dose",81,"Xanomeline High Dose",81,19905,20087,77,"65-80",2,"WHITE",1,"F","Y","","Y","Baseline",0,null,null,"",null,"DERIVED","Bilirubin 1.5 x ULN","BILIHY",4,"HYLAW",0,0,null,null,null,null,null,null,"Y","Normal to Normal",1,"","",null],
[149,"CDISCPILOT01","1034","01-701-1034","Xanomeline High Dose",81,"Xanomeline High Dose",81,19905,20087,77,"65-80",2,"WHITE",1,"F","Y","","Y","Baseline",0,null,null,"",null,"DERIVED","Transaminase 1.5 x ULN","TRANSHY",5,"HYLAW",0,0,null,null,null,null,null,null,"Y","Normal to Normal",1,"","",null],
[150,"CDISCPILOT01","1034","01-701-1034","Xanomeline High Dose",81,"Xanomeline High Dose",81,19905,20087,77,"65-80",2,"WHITE",1,"F","Y","","Y","Baseline",0,null,null,"",null,"DERIVED","Total Bili 1.5 x ULN and Transaminase 1.5 x ULN","HYLAW",6,"HYLAW",0,0,null,null,null,null,null,null,"Y","Normal to Normal",1,"","",null],
[151,"CDISCPILOT01","1034","01-701-1034","Xanomeline High Dose",81,"Xanomeline High Dose",81,19905,20087,77,"65-80",2,"WHITE",1,"F","Y","","Y","Week 2",2,15,19919,"WEEK 2",4,"","Alanine Aminotransferase (U/L)","ALT",1,"CHEM",19,15,6,32,3.2,0.6,2.5,0.5,"","",null,"R2A1HI > 1.5","N",0],
[152,"CDISCPILOT01","1034","01-701-1034","Xanomeline High Dose",81,"Xanomeline High Dose",81,19905,20087,77,"65-80",2,"WHITE",1,"F","Y","","Y","Week 2",2,15,19919,"WEEK 2",4,"","Aspartate Aminotransferase (U/L)","AST",2,"CHEM",23,23,9,34,2.6,0.7,2.6,0.7,"","",null,"R2A1HI > 1.5","N",0],
[153,"CDISCPILOT01","1034","01-701-1034","Xanomeline High Dose",81,"Xanomeline High Dose",81,19905,20087,77,"65-80",2,"WHITE",1,"F","Y","","Y","Week 2",2,15,19919,"WEEK 2",4,"","Bilirubin (umol/L)","BILI",3,"CHEM",6.84,10.26,3,21,2.3,0.3,3.4,0.5,"","",null,"R2A1HI > 1.5","N",0],
[154,"CDISCPILOT01","1034","01-701-1034","Xanomeline High Dose",81,"Xanomeline High Dose",81,19905,20087,77,"65-80",2,"WHITE",1,"F","Y","","Y","Week 2",2,null,null,"",null,"DERIVED","Bilirubin 1.5 x ULN","BILIHY",4,"HYLAW",0,0,null,null,null,null,null,null,"","Normal to Normal",1,"","",null],
[155,"CDISCPILOT01","1034","01-701-1034","Xanomeline High Dose",81,"Xanomeline High Dose",81,19905,20087,77,"65-80",2,"WHITE",1,"F","Y","","Y","Week 2",2,null,null,"",null,"DERIVED","Transaminase 1.5 x ULN","TRANSHY",5,"HYLAW",0,0,null,null,null,null,null,null,"","Normal to Normal",1,"","",null],
[156,"CDISCPILOT01","1034","01-701-1034","Xanomeline High Dose",81,"Xanomeline High Dose",81,19905,20087,77,"65-80",2,"WHITE",1,"F","Y","","Y","Week 2",2,null,null,"",null,"DERIVED","Total Bili 1.5 x ULN and Transaminase 1.5 x ULN","HYLAW",6,"HYLAW",0,0,null,null,null,null,null,null,"","Normal to Normal",1,"","",null],
[157,"CDISCPILOT01","1034","01-701-1034","Xanomeline High Dose",81,"Xanomeline High Dose",81,19905,20087,77,"65-80",2,"WHITE",1,"F","Y","","Y","Week 4",4,29,19933,"WEEK 4",5,"","Alanine Aminotransferase (U/L)","ALT",1,"CHEM",21,15,6,32,3.5,0.7,2.5,0.5,"","",null,"R2A1HI > 1.5","N",0],
[158,"CDISCPILOT01","1034","01-701-1034","Xanomeline High Dose",81,"Xanomeline High Dose",81,19905,20087,77,"65-80",2,"WHITE",1,"F","Y","","Y","Week 4",4,29,19933,"WEEK 4",5,"","Aspartate Aminotransferase (U/L)","AST",2,"CHEM",25,23,9,34,2.8,0.7,2.6,0.7,"","",null,"R2A1HI > 1.5","N",0],
[159,"CDISCPILOT01","1034","01-701-1034","Xanomeline High Dose",81,"Xanomeline High Dose",81,19905,20087,77,"65-80",2,"WHITE",1,"F","Y","","Y","Week 4",4,29,19933,"WEEK 4",5,"","Bilirubin (umol/L)","BILI",3,"CHEM",6.84,10.26,3,21,2.3,0.3,3.4,0.5,"","",null,"R2A1HI > 1.5","N",0],
[160,"CDISCPILOT01","1034","01-701-1034","Xanomeline High Dose",81,"Xanomeline High Dose",81,19905,20087,77,"65-80",2,"WHITE",1,"F","Y","","Y","Week 4",4,null,null,"",null,"DERIVED","Bilirubin 1.5 x ULN","BILIHY",4,"HYLAW",0,0,null,null,null,null,null,null,"","Normal to Normal",1,"","",null],
[161,"CDISCPILOT01","1034","01-701-1034","Xanomeline High Dose",81,"Xanomeline High Dose",81,19905,20087,77,"65-80",2,"WHITE",1,"F","Y","","Y","Week 4",4,null,null,"",null,"DERIVED","Transaminase 1.5 x ULN","TRANSHY",5,"HYLAW",0,0,null,null,null,null,null,null,"","Normal to Normal",1,"","",null],
[162,"CDISCPILOT01","1034","01-701-1034","Xanomeline High Dose",81,"Xanomeline High Dose",81,19905,20087,77,"65-80",2,"WHITE",1,"F","Y","","Y","Week 4",4,null,null,"",null,"DERIVED","Total Bili 1.5 x ULN and Transaminase 1.5 x ULN","HYLAW",6,"HYLAW",0,0,null,null,null,null,null,null,"","Normal to Normal",1,"","",null],
[163,"CDISCPILOT01","1034","01-701-1034","Xanomeline High Dose",81,"Xanomeline High Dose",81,19905,20087,77,"65-80",2,"WHITE",1,"F","Y","","Y","Week 6",6,42,19946,"WEEK 6",7,"","Alanine Aminotransferase (U/L)","ALT",1,"CHEM",15,15,6,32,2.5,0.5,2.5,0.5,"","",null,"R2A1HI > 1.5","N",0],
[164,"CDISCPILOT01","1034","01-701-1034","Xanomeline High Dose",81,"Xanomeline High Dose",81,19905,20087,77,"65-80",2,"WHITE",1,"F","Y","","Y","Week 6",6,42,19946,"WEEK 6",7,"","Aspartate Aminotransferase (U/L)","AST",2,"CHEM",19,23,9,34,2.1,0.6,2.6,0.7,"","",null,"R2A1HI > 1.5","N",0],
[165,"CDISCPILOT01","1034","01-701-1034","Xanomeline High Dose",81,"Xanomeline High Dose",81,19905,20087,77,"65-80",2,"WHITE",1,"F","Y","","Y","Week 6",6,42,19946,"WEEK 6",7,"","Bilirubin (umol/L)","BILI",3,"CHEM",6.84,10.26,3,21,2.3,0.3,3.4,0.5,"","",null,"R2A1HI > 1.5","N",0],
[166,"CDISCPILOT01","1034","01-701-1034","Xanomeline High Dose",81,"Xanomeline High Dose",81,19905,20087,77,"65-80",2,"WHITE",1,"F","Y","","Y","Week 6",6,null,null,"",null,"DERIVED","Bilirubin 1.5 x ULN","BILIHY",4,"HYLAW",0,0,null,null,null,null,null,null,"","Normal to Normal",1,"","",null],
[167,"CDISCPILOT01","1034","01-701-1034","Xanomeline High Dose",81,"Xanomeline High Dose",81,19905,20087,77,"65-80",2,"WHITE",1,"F","Y","","Y","Week 6",6,null,null,"",null,"DERIVED","Transaminase 1.5 x ULN","TRANSHY",5,"HYLAW",0,0,null,null,null,null,null,null,"","Normal to Normal",1,"","",null],
[168,"CDISCPILOT01","1034","01-701-1034","Xanomeline High Dose",81,"Xanomeline High Dose",81,19905,20087,77,"65-80",2,"WHITE",1,"F","Y","","Y","Week 6",6,null,null,"",null,"DERIVED","Total Bili 1.5 x ULN and Transaminase 1.5 x ULN","HYLAW",6,"HYLAW",0,0,null,null,null,null,null,null,"","Normal to Normal",1,"","",null],
[169,"CDISCPILOT01","1034","01-701-1034","Xanomeline High Dose",81,"Xanomeline High Dose",81,19905,20087,77,"65-80",2,"WHITE",1,"F","Y","","Y","Week 8",8,57,19961,"WEEK 8",8,"","Alanine Aminotransferase (U/L)","ALT",1,"CHEM",24,15,6,32,4,0.8,2.5,0.5,"","",null,"R2A1HI > 1.5","N",0],
[170,"CDISCPILOT01","1034","01-701-1034","Xanomeline High Dose",81,"Xanomeline High Dose",81,19905,20087,77,"65-80",2,"WHITE",1,"F","Y","","Y","Week 8",8,57,19961,"WEEK 8",8,"","Aspartate Aminotransferase (U/L)","AST",2,"CHEM",26,23,9,34,2.9,0.8,2.6,0.7,"","",null,"R2A1HI > 1.5","N",0],
[171,"CDISCPILOT01","1034","01-701-1034","Xanomeline High Dose",81,"Xanomeline High Dose",81,19905,20087,77,"65-80",2,"WHITE",1,"F","Y","","Y","Week 8",8,57,19961,"WEEK 8",8,"","Bilirubin (umol/L)","BILI",3,"CHEM",8.55,10.26,3,21,2.8,0.4,3.4,0.5,"","",null,"R2A1HI > 1.5","N",0],
[172,"CDISCPILOT01","1034","01-701-1034","Xanomeline High Dose",81,"Xanomeline High Dose",81,19905,20087,77,"65-80",2,"WHITE",1,"F","Y","","Y","Week 8",8,null,null,"",null,"DERIVED","Bilirubin 1.5 x ULN","BILIHY",4,"HYLAW",0,0,null,null,null,null,null,null,"","Normal to Normal",1,"","",null],
[173,"CDISCPILOT01","1034","01-701-1034","Xanomeline High Dose",81,"Xanomeline High Dose",81,19905,20087,77,"65-80",2,"WHITE",1,"F","Y","","Y","Week 8",8,null,null,"",null,"DERIVED","Transaminase 1.5 x ULN","TRANSHY",5,"HYLAW",0,0,null,null,null,null,null,null,"","Normal to Normal",1,"","",null],
[174,"CDISCPILOT01","1034","01-701-1034","Xanomeline High Dose",81,"Xanomeline High Dose",81,19905,20087,77,"65-80",2,"WHITE",1,"F","Y","","Y","Week 8",8,null,null,"",null,"DERIVED","Total Bili 1.5 x ULN and Transaminase 1.5 x ULN","HYLAW",6,"HYLAW",0,0,null,null,null,null,null,null,"","Normal to Normal",1,"","",null],
[175,"CDISCPILOT01","1034","01-701-1034","Xanomeline High Dose",81,"Xanomeline High Dose",81,19905,20087,77,"65-80",2,"WHITE",1,"F","Y","","Y","Week 12",12,87,19991,"WEEK 12",9,"","Alanine Aminotransferase (U/L)","ALT",1,"CHEM",20,15,6,32,3.3,0.6,2.5,0.5,"","",null,"R2A1HI > 1.5","N",0],
[176,"CDISCPILOT01","1034","01-701-1034","Xanomeline High Dose",81,"Xanomeline High Dose",81,19905,20087,77,"65-80",2,"WHITE",1,"F","Y","","Y","Week 12",12,87,19991,"WEEK 12",9,"","Aspartate Aminotransferase (U/L)","AST",2,"CHEM",23,23,9,34,2.6,0.7,2.6,0.7,"","",null,"R2A1HI > 1.5","N",0],
[177,"CDISCPILOT01","1034","01-701-1034","Xanomeline High Dose",81,"Xanomeline High Dose",81,19905,20087,77,"65-80",2,"WHITE",1,"F","Y","","Y","Week 12",12,87,19991,"WEEK 12",9,"","Bilirubin (umol/L)","BILI",3,"CHEM",8.55,10.26,3,21,2.8,0.4,3.4,0.5,"","",null,"R2A1HI > 1.5","N",0],
[178,"CDISCPILOT01","1034","01-701-1034","Xanomeline High Dose",81,"Xanomeline High Dose",81,19905,20087,77,"65-80",2,"WHITE",1,"F","Y","","Y","Week 12",12,null,null,"",null,"DERIVED","Bilirubin 1.5 x ULN","BILIHY",4,"HYLAW",0,0,null,null,null,null,null,null,"","Normal to Normal",1,"","",null],
[179,"CDISCPILOT01","1034","01-701-1034","Xanomeline High Dose",81,"Xanomeline High Dose",81,19905,20087,77,"65-80",2,"WHITE",1,"F","Y","","Y","Week 12",12,null,null,"",null,"DERIVED","Transaminase 1.5 x ULN","TRANSHY",5,"HYLAW",0,0,null,null,null,null,null,null,"","Normal to Normal",1,"","",null],
[180,"CDISCPILOT01","1034","01-701-1034","Xanomeline High Dose",81,"Xanomeline High Dose",81,19905,20087,77,"65-80",2,"WHITE",1,"F","Y","","Y","Week 12",12,null,null,"",null,"DERIVED","Total Bili 1.5 x ULN and Transaminase 1.5 x ULN","HYLAW",6,"HYLAW",0,0,null,null,null,null,null,null,"","Normal to Normal",1,"","",null],
[181,"CDISCPILOT01","1034","01-701-1034","Xanomeline High Dose",81,"Xanomeline High Dose",81,19905,20087,77,"65-80",2,"WHITE",1,"F","Y","","Y","Week 16",16,113,20017,"WEEK 16",10,"","Alanine Aminotransferase (U/L)","ALT",1,"CHEM",21,15,6,32,3.5,0.7,2.5,0.5,"","",null,"R2A1HI > 1.5","N",0],
[182,"CDISCPILOT01","1034","01-701-1034","Xanomeline High Dose",81,"Xanomeline High Dose",81,19905,20087,77,"65-80",2,"WHITE",1,"F","Y","","Y","Week 16",16,113,20017,"WEEK 16",10,"","Aspartate Aminotransferase (U/L)","AST",2,"CHEM",21,23,9,34,2.3,0.6,2.6,0.7,"","",null,"R2A1HI > 1.5","N",0],
[183,"CDISCPILOT01","1034","01-701-1034","Xanomeline High Dose",81,"Xanomeline High Dose",81,19905,20087,77,"65-80",2,"WHITE",1,"F","Y","","Y","Week 16",16,113,20017,"WEEK 16",10,"","Bilirubin (umol/L)","BILI",3,"CHEM",6.84,10.26,3,21,2.3,0.3,3.4,0.5,"","",null,"R2A1HI > 1.5","N",0],
[184,"CDISCPILOT01","1034","01-701-1034","Xanomeline High Dose",81,"Xanomeline High Dose",81,19905,20087,77,"65-80",2,"WHITE",1,"F","Y","","Y","Week 16",16,null,null,"",null,"DERIVED","Bilirubin 1.5 x ULN","BILIHY",4,"HYLAW",0,0,null,null,null,null,null,null,"","Normal to Normal",1,"","",null],
[185,"CDISCPILOT01","1034","01-701-1034","Xanomeline High Dose",81,"Xanomeline High Dose",81,19905,20087,77,"65-80",2,"WHITE",1,"F","Y","","Y","Week 16",16,null,null,"",null,"DERIVED","Transaminase 1.5 x ULN","TRANSHY",5,"HYLAW",0,0,null,null,null,null,null,null,"","Normal to Normal",1,"","",null],
[186,"CDISCPILOT01","1034","01-701-1034","Xanomeline High Dose",81,"Xanomeline High Dose",81,19905,20087,77,"65-80",2,"WHITE",1,"F","Y","","Y","Week 16",16,null,null,"",null,"DERIVED","Total Bili 1.5 x ULN and Transaminase 1.5 x ULN","HYLAW",6,"HYLAW",0,0,null,null,null,null,null,null,"","Normal to Normal",1,"","",null],
[187,"CDISCPILOT01","1034","01-701-1034","Xanomeline High Dose",81,"Xanomeline High Dose",81,19905,20087,77,"65-80",2,"WHITE",1,"F","Y","","Y","Week 20",20,141,20045,"WEEK 20",11,"","Alanine Aminotransferase (U/L)","ALT",1,"CHEM",23,15,6,32,3.8,0.7,2.5,0.5,"","",null,"R2A1HI > 1.5","N",0],
[188,"CDISCPILOT01","1034","01-701-1034","Xanomeline High Dose",81,"Xanomeline High Dose",81,19905,20087,77,"65-80",2,"WHITE",1,"F","Y","","Y","Week 20",20,141,20045,"WEEK 20",11,"","Aspartate Aminotransferase (U/L)","AST",2,"CHEM",22,23,9,34,2.4,0.6,2.6,0.7,"","",null,"R2A1HI > 1.5","N",0],
[189,"CDISCPILOT01","1034","01-701-1034","Xanomeline High Dose",81,"Xanomeline High Dose",81,19905,20087,77,"65-80",2,"WHITE",1,"F","Y","","Y","Week 20",20,141,20045,"WEEK 20",11,"","Bilirubin (umol/L)","BILI",3,"CHEM",5.13,10.26,3,21,1.7,0.2,3.4,0.5,"","",null,"R2A1HI > 1.5","N",0],
[190,"CDISCPILOT01","1034","01-701-1034","Xanomeline High Dose",81,"Xanomeline High Dose",81,19905,20087,77,"65-80",2,"WHITE",1,"F","Y","","Y","Week 20",20,null,null,"",null,"DERIVED","Bilirubin 1.5 x ULN","BILIHY",4,"HYLAW",0,0,null,null,null,null,null,null,"","Normal to Normal",1,"","",null],
[191,"CDISCPILOT01","1034","01-701-1034","Xanomeline High Dose",81,"Xanomeline High Dose",81,19905,20087,77,"65-80",2,"WHITE",1,"F","Y","","Y","Week 20",20,null,null,"",null,"DERIVED","Transaminase 1.5 x ULN","TRANSHY",5,"HYLAW",0,0,null,null,null,null,null,null,"","Normal to Normal",1,"","",null],
[192,"CDISCPILOT01","1034","01-701-1034","Xanomeline High Dose",81,"Xanomeline High Dose",81,19905,20087,77,"65-80",2,"WHITE",1,"F","Y","","Y","Week 20",20,null,null,"",null,"DERIVED","Total Bili 1.5 x ULN and Transaminase 1.5 x ULN","HYLAW",6,"HYLAW",0,0,null,null,null,null,null,null,"","Normal to Normal",1,"","",null],
[193,"CDISCPILOT01","1034","01-701-1034","Xanomeline High Dose",81,"Xanomeline High Dose",81,19905,20087,77,"65-80",2,"WHITE",1,"F","Y","","Y","Week 24",24,170,20074,"WEEK 24",12,"","Alanine Aminotransferase (U/L)","ALT",1,"CHEM",15,15,6,32,2.5,0.5,2.5,0.5,"","",null,"R2A1HI > 1.5","N",0],
[194,"CDISCPILOT01","1034","01-701-1034","Xanomeline High Dose",81,"Xanomeline High Dose",81,19905,20087,77,"65-80",2,"WHITE",1,"F","Y","","Y","Week 24",24,170,20074,"WEEK 24",12,"","Aspartate Aminotransferase (U/L)","AST",2,"CHEM",17,23,9,34,1.9,0.5,2.6,0.7,"","",null,"R2A1HI > 1.5","N",0],
[195,"CDISCPILOT01","1034","01-701-1034","Xanomeline High Dose",81,"Xanomeline High Dose",81,19905,20087,77,"65-80",2,"WHITE",1,"F","Y","","Y","Week 24",24,170,20074,"WEEK 24",12,"","Bilirubin (umol/L)","BILI",3,"CHEM",6.84,10.26,3,21,2.3,0.3,3.4,0.5,"","",null,"R2A1HI > 1.5","N",0],
[196,"CDISCPILOT01","1034","01-701-1034","Xanomeline High Dose",81,"Xanomeline High Dose",81,19905,20087,77,"65-80",2,"WHITE",1,"F","Y","","Y","Week 24",24,null,null,"",null,"DERIVED","Bilirubin 1.5 x ULN","BILIHY",4,"HYLAW",0,0,null,null,null,null,null,null,"","Normal to Normal",1,"","",null],
[197,"CDISCPILOT01","1034","01-701-1034","Xanomeline High Dose",81,"Xanomeline High Dose",81,19905,20087,77,"65-80",2,"WHITE",1,"F","Y","","Y","Week 24",24,null,null,"",null,"DERIVED","Transaminase 1.5 x ULN","TRANSHY",5,"HYLAW",0,0,null,null,null,null,null,null,"","Normal to Normal",1,"","",null],
[198,"CDISCPILOT01","1034","01-701-1034","Xanomeline High Dose",81,"Xanomeline High Dose",81,19905,20087,77,"65-80",2,"WHITE",1,"F","Y","","Y","Week 24",24,null,null,"",null,"DERIVED","Total Bili 1.5 x ULN and Transaminase 1.5 x ULN","HYLAW",6,"HYLAW",0,0,null,null,null,null,null,null,"","Normal to Normal",1,"","",null],
[199,"CDISCPILOT01","1047","01-701-1047","Placebo",0,"Placebo",0,19401,19426,85,">80",3,"WHITE",1,"F","N","Y","Y","Baseline",0,-21,19380,"SCREENING 1",1,"","Alanine Aminotransferase (U/L)","ALT",1,"CHEM",22,22,6,32,3.7,0.7,3.7,0.7,"Y","",null,"R2A1HI > 1.5","N",0],
[200,"CDISCPILOT01","1047","01-701-1047","Placebo",0,"Placebo",0,19401,19426,85,">80",3,"WHITE",1,"F","N","Y","Y","Baseline",0,-21,19380,"SCREENING 1",1,"","Aspartate Aminotransferase (U/L)","AST",2,"CHEM",25,25,9,34,2.8,0.7,2.8,0.7,"Y","",null,"R2A1HI > 1.5","N",0],
[201,"CDISCPILOT01","1047","01-701-1047","Placebo",0,"Placebo",0,19401,19426,85,">80",3,"WHITE",1,"F","N","Y","Y","Baseline",0,-21,19380,"SCREENING 1",1,"","Bilirubin (umol/L)","BILI",3,"CHEM",6.84,6.84,3,21,2.3,0.3,2.3,0.3,"Y","",null,"R2A1HI > 1.5","N",0],
[202,"CDISCPILOT01","1047","01-701-1047","Placebo",0,"Placebo",0,19401,19426,85,">80",3,"WHITE",1,"F","N","Y","Y","Baseline",0,null,null,"",null,"DERIVED","Bilirubin 1.5 x ULN","BILIHY",4,"HYLAW",0,0,null,null,null,null,null,null,"Y","Normal to Normal",1,"","",null],
[203,"CDISCPILOT01","1047","01-701-1047","Placebo",0,"Placebo",0,19401,19426,85,">80",3,"WHITE",1,"F","N","Y","Y","Baseline",0,null,null,"",null,"DERIVED","Transaminase 1.5 x ULN","TRANSHY",5,"HYLAW",0,0,null,null,null,null,null,null,"Y","Normal to Normal",1,"","",null],
[204,"CDISCPILOT01","1047","01-701-1047","Placebo",0,"Placebo",0,19401,19426,85,">80",3,"WHITE",1,"F","N","Y","Y","Baseline",0,null,null,"",null,"DERIVED","Total Bili 1.5 x ULN and Transaminase 1.5 x ULN","HYLAW",6,"HYLAW",0,0,null,null,null,null,null,null,"Y","Normal to Normal",1,"","",null],
[205,"CDISCPILOT01","1047","01-701-1047","Placebo",0,"Placebo",0,19401,19426,85,">80",3,"WHITE",1,"F","N","Y","Y","Week 2",2,14,19414,"WEEK 2",4,"","Alanine Aminotransferase (U/L)","ALT",1,"CHEM",16,22,6,32,2.7,0.5,3.7,0.7,"","",null,"R2A1HI > 1.5","N",0],
[206,"CDISCPILOT01","1047","01-701-1047","Placebo",0,"Placebo",0,19401,19426,85,">80",3,"WHITE",1,"F","N","Y","Y","Week 2",2,14,19414,"WEEK 2",4,"","Aspartate Aminotransferase (U/L)","AST",2,"CHEM",21,25,9,34,2.3,0.6,2.8,0.7,"","",null,"R2A1HI > 1.5","N",0],
[207,"CDISCPILOT01","1047","01-701-1047","Placebo",0,"Placebo",0,19401,19426,85,">80",3,"WHITE",1,"F","N","Y","Y","Week 2",2,14,19414,"WEEK 2",4,"","Bilirubin (umol/L)","BILI",3,"CHEM",8.55,6.84,3,21,2.8,0.4,2.3,0.3,"","",null,"R2A1HI > 1.5","N",0],
[208,"CDISCPILOT01","1047","01-701-1047","Placebo",0,"Placebo",0,19401,19426,85,">80",3,"WHITE",1,"F","N","Y","Y","Week 2",2,null,null,"",null,"DERIVED","Bilirubin 1.5 x ULN","BILIHY",4,"HYLAW",0,0,null,null,null,null,null,null,"","Normal to Normal",1,"","",null],
[209,"CDISCPILOT01","1047","01-701-1047","Placebo",0,"Placebo",0,19401,19426,85,">80",3,"WHITE",1,"F","N","Y","Y","Week 2",2,null,null,"",null,"DERIVED","Transaminase 1.5 x ULN","TRANSHY",5,"HYLAW",0,0,null,null,null,null,null,null,"","Normal to Normal",1,"","",null],
[210,"CDISCPILOT01","1047","01-701-1047","Placebo",0,"Placebo",0,19401,19426,85,">80",3,"WHITE",1,"F","N","Y","Y","Week 2",2,null,null,"",null,"DERIVED","Total Bili 1.5 x ULN and Transaminase 1.5 x ULN","HYLAW",6,"HYLAW",0,0,null,null,null,null,null,null,"","Normal to Normal",1,"","",null],
[211,"CDISCPILOT01","1047","01-701-1047","Placebo",0,"Placebo",0,19401,19426,85,">80",3,"WHITE",1,"F","N","Y","Y","Week 4",4,27,19427,"WEEK 4",5,"","Alanine Aminotransferase (U/L)","ALT",1,"CHEM",20,22,6,32,3.3,0.6,3.7,0.7,"","",null,"R2A1HI > 1.5","N",0],
[212,"CDISCPILOT01","1047","01-701-1047","Placebo",0,"Placebo",0,19401,19426,85,">80",3,"WHITE",1,"F","N","Y","Y","Week 4",4,27,19427,"WEEK 4",5,"","Aspartate Aminotransferase (U/L)","AST",2,"CHEM",24,25,9,34,2.7,0.7,2.8,0.7,"","",null,"R2A1HI > 1.5","N",0],
[213,"CDISCPILOT01","1047","01-701-1047","Placebo",0,"Placebo",0,19401,19426,85,">80",3,"WHITE",1,"F","N","Y","Y","Week 4",4,27,19427,"WEEK 4",5,"","Bilirubin (umol/L)","BILI",3,"CHEM",6.84,6.84,3,21,2.3,0.3,2.3,0.3,"","",null,"R2A1HI > 1.5","N",0],
[214,"CDISCPILOT01","1047","01-701-1047","Placebo",0,"Placebo",0,19401,19426,85,">80",3,"WHITE",1,"F","N","Y","Y","Week 4",4,null,null,"",null,"DERIVED","Bilirubin 1.5 x ULN","BILIHY",4,"HYLAW",0,0,null,null,null,null,null,null,"","Normal to Normal",1,"","",null],
[215,"CDISCPILOT01","1047","01-701-1047","Placebo",0,"Placebo",0,19401,19426,85,">80",3,"WHITE",1,"F","N","Y","Y","Week 4",4,null,null,"",null,"DERIVED","Transaminase 1.5 x ULN","TRANSHY",5,"HYLAW",0,0,null,null,null,null,null,null,"","Normal to Normal",1,"","",null],
[216,"CDISCPILOT01","1047","01-701-1047","Placebo",0,"Placebo",0,19401,19426,85,">80",3,"WHITE",1,"F","N","Y","Y","Week 4",4,null,null,"",null,"DERIVED","Total Bili 1.5 x ULN and Transaminase 1.5 x ULN","HYLAW",6,"HYLAW",0,0,null,null,null,null,null,null,"","Normal to Normal",1,"","",null],
[217,"CDISCPILOT01","1097","01-701-1097","Xanomeline Low Dose",54,"Xanomeline Low Dose",54,19724,19913,68,"65-80",2,"WHITE",1,"M","Y","","Y","Baseline",0,-9,19715,"SCREENING 1",1,"","Alanine Aminotransferase (U/L)","ALT",1,"CHEM",16,16,6,43,2.7,0.4,2.7,0.4,"Y","",null,"R2A1HI > 1.5","N",0],
[218,"CDISCPILOT01","1097","01-701-1097","Xanomeline Low Dose",54,"Xanomeline Low Dose",54,19724,19913,68,"65-80",2,"WHITE",1,"M","Y","","Y","Baseline",0,-9,19715,"SCREENING 1",1,"","Aspartate Aminotransferase (U/L)","AST",2,"CHEM",19,19,11,36,1.7,0.5,1.7,0.5,"Y","",null,"R2A1HI > 1.5","N",0],
[219,"CDISCPILOT01","1097","01-701-1097","Xanomeline Low Dose",54,"Xanomeline Low Dose",54,19724,19913,68,"65-80",2,"WHITE",1,"M","Y","","Y","Baseline",0,-9,19715,"SCREENING 1",1,"","Bilirubin (umol/L)","BILI",3,"CHEM",6.84,6.84,3,21,2.3,0.3,2.3,0.3,"Y","",null,"R2A1HI > 1.5","N",0],
[220,"CDISCPILOT01","1097","01-701-1097","Xanomeline Low Dose",54,"Xanomeline Low Dose",54,19724,19913,68,"65-80",2,"WHITE",1,"M","Y","","Y","Baseline",0,null,null,"",null,"DERIVED","Bilirubin 1.5 x ULN","BILIHY",4,"HYLAW",0,0,null,null,null,null,null,null,"Y","Normal to Normal",1,"","",null],
[221,"CDISCPILOT01","1097","01-701-1097","Xanomeline Low Dose",54,"Xanomeline Low Dose",54,19724,19913,68,"65-80",2,"WHITE",1,"M","Y","","Y","Baseline",0,null,null,"",null,"DERIVED","Transaminase 1.5 x ULN","TRANSHY",5,"HYLAW",0,0,null,null,null,null,null,null,"Y","Normal to Normal",1,"","",null],
[222,"CDISCPILOT01","1097","01-701-1097","Xanomeline Low Dose",54,"Xanomeline Low Dose",54,19724,19913,68,"65-80",2,"WHITE",1,"M","Y","","Y","Baseline",0,null,null,"",null,"DERIVED","Total Bili 1.5 x ULN and Transaminase 1.5 x ULN","HYLAW",6,"HYLAW",0,0,null,null,null,null,null,null,"Y","Normal to Normal",1,"","",null],
[223,"CDISCPILOT01","1097","01-701-1097","Xanomeline Low Dose",54,"Xanomeline Low Dose",54,19724,19913,68,"65-80",2,"WHITE",1,"M","Y","","Y","Week 2",2,15,19738,"WEEK 2",4,"","Alanine Aminotransferase (U/L)","ALT",1,"CHEM",24,16,6,43,4,0.6,2.7,0.4,"","",null,"R2A1HI > 1.5","N",0],
[224,"CDISCPILOT01","1097","01-701-1097","Xanomeline Low Dose",54,"Xanomeline Low Dose",54,19724,19913,68,"65-80",2,"WHITE",1,"M","Y","","Y","Week 2",2,15,19738,"WEEK 2",4,"","Aspartate Aminotransferase (U/L)","AST",2,"CHEM",21,19,11,36,1.9,0.6,1.7,0.5,"","",null,"R2A1HI > 1.5","N",0],
[225,"CDISCPILOT01","1097","01-701-1097","Xanomeline Low Dose",54,"Xanomeline Low Dose",54,19724,19913,68,"65-80",2,"WHITE",1,"M","Y","","Y","Week 2",2,15,19738,"WEEK 2",4,"","Bilirubin (umol/L)","BILI",3,"CHEM",8.55,6.84,3,21,2.8,0.4,2.3,0.3,"","",null,"R2A1HI > 1.5","N",0],
[226,"CDISCPILOT01","1097","01-701-1097","Xanomeline Low Dose",54,"Xanomeline Low Dose",54,19724,19913,68,"65-80",2,"WHITE",1,"M","Y","","Y","Week 2",2,null,null,"",null,"DERIVED","Bilirubin 1.5 x ULN","BILIHY",4,"HYLAW",0,0,null,null,null,null,null,null,"","Normal to Normal",1,"","",null],
[227,"CDISCPILOT01","1097","01-701-1097","Xanomeline Low Dose",54,"Xanomeline Low Dose",54,19724,19913,68,"65-80",2,"WHITE",1,"M","Y","","Y","Week 2",2,null,null,"",null,"DERIVED","Transaminase 1.5 x ULN","TRANSHY",5,"HYLAW",0,0,null,null,null,null,null,null,"","Normal to Normal",1,"","",null],
[228,"CDISCPILOT01","1097","01-701-1097","Xanomeline Low Dose",54,"Xanomeline Low Dose",54,19724,19913,68,"65-80",2,"WHITE",1,"M","Y","","Y","Week 2",2,null,null,"",null,"DERIVED","Total Bili 1.5 x ULN and Transaminase 1.5 x ULN","HYLAW",6,"HYLAW",0,0,null,null,null,null,null,null,"","Normal to Normal",1,"","",null],
[229,"CDISCPILOT01","1097","01-701-1097","Xanomeline Low Dose",54,"Xanomeline Low Dose",54,19724,19913,68,"65-80",2,"WHITE",1,"M","Y","","Y","Week 4",4,29,19752,"WEEK 4",5,"","Alanine Aminotransferase (U/L)","ALT",1,"CHEM",17,16,6,43,2.8,0.4,2.7,0.4,"","",null,"R2A1HI > 1.5","N",0],
[230,"CDISCPILOT01","1097","01-701-1097","Xanomeline Low Dose",54,"Xanomeline Low Dose",54,19724,19913,68,"65-80",2,"WHITE",1,"M","Y","","Y","Week 4",4,29,19752,"WEEK 4",5,"","Aspartate Aminotransferase (U/L)","AST",2,"CHEM",16,19,11,36,1.5,0.4,1.7,0.5,"","",null,"R2A1HI > 1.5","N",0],
[231,"CDISCPILOT01","1097","01-701-1097","Xanomeline Low Dose",54,"Xanomeline Low Dose",54,19724,19913,68,"65-80",2,"WHITE",1,"M","Y","","Y","Week 4",4,29,19752,"WEEK 4",5,"","Bilirubin (umol/L)","BILI",3,"CHEM",10.26,6.84,3,21,3.4,0.5,2.3,0.3,"","",null,"R2A1HI > 1.5","N",0],
[232,"CDISCPILOT01","1097","01-701-1097","Xanomeline Low Dose",54,"Xanomeline Low Dose",54,19724,19913,68,"65-80",2,"WHITE",1,"M","Y","","Y","Week 4",4,null,null,"",null,"DERIVED","Bilirubin 1.5 x ULN","BILIHY",4,"HYLAW",0,0,null,null,null,null,null,null,"","Normal to Normal",1,"","",null],
[233,"CDISCPILOT01","1097","01-701-1097","Xanomeline Low Dose",54,"Xanomeline Low Dose",54,19724,19913,68,"65-80",2,"WHITE",1,"M","Y","","Y","Week 4",4,null,null,"",null,"DERIVED","Transaminase 1.5 x ULN","TRANSHY",5,"HYLAW",0,0,null,null,null,null,null,null,"","Normal to Normal",1,"","",null],
[234,"CDISCPILOT01","1097","01-701-1097","Xanomeline Low Dose",54,"Xanomeline Low Dose",54,19724,19913,68,"65-80",2,"WHITE",1,"M","Y","","Y","Week 4",4,null,null,"",null,"DERIVED","Total Bili 1.5 x ULN and Transaminase 1.5 x ULN","HYLAW",6,"HYLAW",0,0,null,null,null,null,null,null,"","Normal to Normal",1,"","",null],
[235,"CDISCPILOT01","1097","01-701-1097","Xanomeline Low Dose",54,"Xanomeline Low Dose",54,19724,19913,68,"65-80",2,"WHITE",1,"M","Y","","Y","Week 6",6,42,19765,"WEEK 6",7,"","Alanine Aminotransferase (U/L)","ALT",1,"CHEM",14,16,6,43,2.3,0.3,2.7,0.4,"","",null,"R2A1HI > 1.5","N",0],
[236,"CDISCPILOT01","1097","01-701-1097","Xanomeline Low Dose",54,"Xanomeline Low Dose",54,19724,19913,68,"65-80",2,"WHITE",1,"M","Y","","Y","Week 6",6,42,19765,"WEEK 6",7,"","Aspartate Aminotransferase (U/L)","AST",2,"CHEM",19,19,11,36,1.7,0.5,1.7,0.5,"","",null,"R2A1HI > 1.5","N",0],
[237,"CDISCPILOT01","1097","01-701-1097","Xanomeline Low Dose",54,"Xanomeline Low Dose",54,19724,19913,68,"65-80",2,"WHITE",1,"M","Y","","Y","Week 6",6,42,19765,"WEEK 6",7,"","Bilirubin (umol/L)","BILI",3,"CHEM",8.55,6.84,3,21,2.8,0.4,2.3,0.3,"","",null,"R2A1HI > 1.5","N",0],
[238,"CDISCPILOT01","1097","01-701-1097","Xanomeline Low Dose",54,"Xanomeline Low Dose",54,19724,19913,68,"65-80",2,"WHITE",1,"M","Y","","Y","Week 6",6,null,null,"",null,"DERIVED","Bilirubin 1.5 x ULN","BILIHY",4,"HYLAW",0,0,null,null,null,null,null,null,"","Normal to Normal",1,"","",null],
[239,"CDISCPILOT01","1097","01-701-1097","Xanomeline Low Dose",54,"Xanomeline Low Dose",54,19724,19913,68,"65-80",2,"WHITE",1,"M","Y","","Y","Week 6",6,null,null,"",null,"DERIVED","Transaminase 1.5 x ULN","TRANSHY",5,"HYLAW",0,0,null,null,null,null,null,null,"","Normal to Normal",1,"","",null],
[240,"CDISCPILOT01","1097","01-701-1097","Xanomeline Low Dose",54,"Xanomeline Low Dose",54,19724,19913,68,"65-80",2,"WHITE",1,"M","Y","","Y","Week 6",6,null,null,"",null,"DERIVED","Total Bili 1.5 x ULN and Transaminase 1.5 x ULN","HYLAW",6,"HYLAW",0,0,null,null,null,null,null,null,"","Normal to Normal",1,"","",null],
[241,"CDISCPILOT01","1097","01-701-1097","Xanomeline Low Dose",54,"Xanomeline Low Dose",54,19724,19913,68,"65-80",2,"WHITE",1,"M","Y","","Y","Week 8",8,57,19780,"WEEK 8",8,"","Alanine Aminotransferase (U/L)","ALT",1,"CHEM",18,16,6,43,3,0.4,2.7,0.4,"","",null,"R2A1HI > 1.5","N",0],
[242,"CDISCPILOT01","1097","01-701-1097","Xanomeline Low Dose",54,"Xanomeline Low Dose",54,19724,19913,68,"65-80",2,"WHITE",1,"M","Y","","Y","Week 8",8,57,19780,"WEEK 8",8,"","Aspartate Aminotransferase (U/L)","AST",2,"CHEM",18,19,11,36,1.6,0.5,1.7,0.5,"","",null,"R2A1HI > 1.5","N",0],
[243,"CDISCPILOT01","1097","01-701-1097","Xanomeline Low Dose",54,"Xanomeline Low Dose",54,19724,19913,68,"65-80",2,"WHITE",1,"M","Y","","Y","Week 8",8,57,19780,"WEEK 8",8,"","Bilirubin (umol/L)","BILI",3,"CHEM",8.55,6.84,3,21,2.8,0.4,2.3,0.3,"","",null,"R2A1HI > 1.5","N",0],
[244,"CDISCPILOT01","1097","01-701-1097","Xanomeline Low Dose",54,"Xanomeline Low Dose",54,19724,19913,68,"65-80",2,"WHITE",1,"M","Y","","Y","Week 8",8,null,null,"",null,"DERIVED","Bilirubin 1.5 x ULN","BILIHY",4,"HYLAW",0,0,null,null,null,null,null,null,"","Normal to Normal",1,"","",null],
[245,"CDISCPILOT01","1097","01-701-1097","Xanomeline Low Dose",54,"Xanomeline Low Dose",54,19724,19913,68,"65-80",2,"WHITE",1,"M","Y","","Y","Week 8",8,null,null,"",null,"DERIVED","Transaminase 1.5 x ULN","TRANSHY",5,"HYLAW",0,0,null,null,null,null,null,null,"","Normal to Normal",1,"","",null],
[246,"CDISCPILOT01","1097","01-701-1097","Xanomeline Low Dose",54,"Xanomeline Low Dose",54,19724,19913,68,"65-80",2,"WHITE",1,"M","Y","","Y","Week 8",8,null,null,"",null,"DERIVED","Total Bili 1.5 x ULN and Transaminase 1.5 x ULN","HYLAW",6,"HYLAW",0,0,null,null,null,null,null,null,"","Normal to Normal",1,"","",null],
[247,"CDISCPILOT01","1097","01-701-1097","Xanomeline Low Dose",54,"Xanomeline Low Dose",54,19724,19913,68,"65-80",2,"WHITE",1,"M","Y","","Y","Week 12",12,85,19808,"WEEK 12",9,"","Alanine Aminotransferase (U/L)","ALT",1,"CHEM",14,16,6,43,2.3,0.3,2.7,0.4,"","",null,"R2A1HI > 1.5","N",0],
[248,"CDISCPILOT01","1097","01-701-1097","Xanomeline Low Dose",54,"Xanomeline Low Dose",54,19724,19913,68,"65-80",2,"WHITE",1,"M","Y","","Y","Week 12",12,85,19808,"WEEK 12",9,"","Aspartate Aminotransferase (U/L)","AST",2,"CHEM",17,19,11,36,1.5,0.5,1.7,0.5,"","",null,"R2A1HI > 1.5","N",0],
[249,"CDISCPILOT01","1097","01-701-1097","Xanomeline Low Dose",54,"Xanomeline Low Dose",54,19724,19913,68,"65-80",2,"WHITE",1,"M","Y","","Y","Week 12",12,85,19808,"WEEK 12",9,"","Bilirubin (umol/L)","BILI",3,"CHEM",6.84,6.84,3,21,2.3,0.3,2.3,0.3,"","",null,"R2A1HI > 1.5","N",0],
[250,"CDISCPILOT01","1097","01-701-1097","Xanomeline Low Dose",54,"Xanomeline Low Dose",54,19724,19913,68,"65-80",2,"WHITE",1,"M","Y","","Y","Week 12",12,null,null,"",null,"DERIVED","Bilirubin 1.5 x ULN","BILIHY",4,"HYLAW",0,0,null,null,null,null,null,null,"","Normal to Normal",1,"","",null],
[251,"CDISCPILOT01","1097","01-701-1097","Xanomeline Low Dose",54,"Xanomeline Low Dose",54,19724,19913,68,"65-80",2,"WHITE",1,"M","Y","","Y","Week 12",12,null,null,"",null,"DERIVED","Transaminase 1.5 x ULN","TRANSHY",5,"HYLAW",0,0,null,null,null,null,null,null,"","Normal to Normal",1,"","",null],
[252,"CDISCPILOT01","1097","01-701-1097","Xanomeline Low Dose",54,"Xanomeline Low Dose",54,19724,19913,68,"65-80",2,"WHITE",1,"M","Y","","Y","Week 12",12,null,null,"",null,"DERIVED","Total Bili 1.5 x ULN and Transaminase 1.5 x ULN","HYLAW",6,"HYLAW",0,0,null,null,null,null,null,null,"","Normal to Normal",1,"","",null],
[253,"CDISCPILOT01","1097","01-701-1097","Xanomeline Low Dose",54,"Xanomeline Low Dose",54,19724,19913,68,"65-80",2,"WHITE",1,"M","Y","","Y","Week 16",16,113,19836,"WEEK 16",10,"","Alanine Aminotransferase (U/L)","ALT",1,"CHEM",15,16,6,43,2.5,0.3,2.7,0.4,"","",null,"R2A1HI > 1.5","N",0],
[254,"CDISCPILOT01","1097","01-701-1097","Xanomeline Low Dose",54,"Xanomeline Low Dose",54,19724,19913,68,"65-80",2,"WHITE",1,"M","Y","","Y","Week 16",16,113,19836,"WEEK 16",10,"","Aspartate Aminotransferase (U/L)","AST",2,"CHEM",17,19,11,36,1.5,0.5,1.7,0.5,"","",null,"R2A1HI > 1.5","N",0],
[255,"CDISCPILOT01","1097","01-701-1097","Xanomeline Low Dose",54,"Xanomeline Low Dose",54,19724,19913,68,"65-80",2,"WHITE",1,"M","Y","","Y","Week 16",16,113,19836,"WEEK 16",10,"","Bilirubin (umol/L)","BILI",3,"CHEM",6.84,6.84,3,21,2.3,0.3,2.3,0.3,"","",null,"R2A1HI > 1.5","N",0],
[256,"CDISCPILOT01","1097","01-701-1097","Xanomeline Low Dose",54,"Xanomeline Low Dose",54,19724,19913,68,"65-80",2,"WHITE",1,"M","Y","","Y","Week 16",16,null,null,"",null,"DERIVED","Bilirubin 1.5 x ULN","BILIHY",4,"HYLAW",0,0,null,null,null,null,null,null,"","Normal to Normal",1,"","",null],
[257,"CDISCPILOT01","1097","01-701-1097","Xanomeline Low Dose",54,"Xanomeline Low Dose",54,19724,19913,68,"65-80",2,"WHITE",1,"M","Y","","Y","Week 16",16,null,null,"",null,"DERIVED","Transaminase 1.5 x ULN","TRANSHY",5,"HYLAW",0,0,null,null,null,null,null,null,"","Normal to Normal",1,"","",null],
[258,"CDISCPILOT01","1097","01-701-1097","Xanomeline Low Dose",54,"Xanomeline Low Dose",54,19724,19913,68,"65-80",2,"WHITE",1,"M","Y","","Y","Week 16",16,null,null,"",null,"DERIVED","Total Bili 1.5 x ULN and Transaminase 1.5 x ULN","HYLAW",6,"HYLAW",0,0,null,null,null,null,null,null,"","Normal to Normal",1,"","",null],
[259,"CDISCPILOT01","1097","01-701-1097","Xanomeline Low Dose",54,"Xanomeline Low Dose",54,19724,19913,68,"65-80",2,"WHITE",1,"M","Y","","Y","Week 20",20,141,19864,"WEEK 20",11,"","Alanine Aminotransferase (U/L)","ALT",1,"CHEM",11,16,6,43,1.8,0.3,2.7,0.4,"","",null,"R2A1HI > 1.5","N",0],
[260,"CDISCPILOT01","1097","01-701-1097","Xanomeline Low Dose",54,"Xanomeline Low Dose",54,19724,19913,68,"65-80",2,"WHITE",1,"M","Y","","Y","Week 20",20,141,19864,"WEEK 20",11,"","Aspartate Aminotransferase (U/L)","AST",2,"CHEM",16,19,11,36,1.5,0.4,1.7,0.5,"","",null,"R2A1HI > 1.5","N",0],
[261,"CDISCPILOT01","1097","01-701-1097","Xanomeline Low Dose",54,"Xanomeline Low Dose",54,19724,19913,68,"65-80",2,"WHITE",1,"M","Y","","Y","Week 20",20,141,19864,"WEEK 20",11,"","Bilirubin (umol/L)","BILI",3,"CHEM",5.13,6.84,3,21,1.7,0.2,2.3,0.3,"","",null,"R2A1HI > 1.5","N",0],
[262,"CDISCPILOT01","1097","01-701-1097","Xanomeline Low Dose",54,"Xanomeline Low Dose",54,19724,19913,68,"65-80",2,"WHITE",1,"M","Y","","Y","Week 20",20,null,null,"",null,"DERIVED","Bilirubin 1.5 x ULN","BILIHY",4,"HYLAW",0,0,null,null,null,null,null,null,"","Normal to Normal",1,"","",null],
[263,"CDISCPILOT01","1097","01-701-1097","Xanomeline Low Dose",54,"Xanomeline Low Dose",54,19724,19913,68,"65-80",2,"WHITE",1,"M","Y","","Y","Week 20",20,null,null,"",null,"DERIVED","Transaminase 1.5 x ULN","TRANSHY",5,"HYLAW",0,0,null,null,null,null,null,null,"","Normal to Normal",1,"","",null],
[264,"CDISCPILOT01","1097","01-701-1097","Xanomeline Low Dose",54,"Xanomeline Low Dose",54,19724,19913,68,"65-80",2,"WHITE",1,"M","Y","","Y","Week 20",20,null,null,"",null,"DERIVED","Total Bili 1.5 x ULN and Transaminase 1.5 x ULN","HYLAW",6,"HYLAW",0,0,null,null,null,null,null,null,"","Normal to Normal",1,"","",null],
[265,"CDISCPILOT01","1097","01-701-1097","Xanomeline Low Dose",54,"Xanomeline Low Dose",54,19724,19913,68,"65-80",2,"WHITE",1,"M","Y","","Y","Week 24",24,169,19892,"WEEK 24",12,"","Alanine Aminotransferase (U/L)","ALT",1,"CHEM",18,16,6,43,3,0.4,2.7,0.4,"","",null,"R2A1HI > 1.5","N",0],
[266,"CDISCPILOT01","1097","01-701-1097","Xanomeline Low Dose",54,"Xanomeline Low Dose",54,19724,19913,68,"65-80",2,"WHITE",1,"M","Y","","Y","Week 24",24,169,19892,"WEEK 24",12,"","Aspartate Aminotransferase (U/L)","AST",2,"CHEM",20,19,11,36,1.8,0.6,1.7,0.5,"","",null,"R2A1HI > 1.5","N",0],
[267,"CDISCPILOT01","1097","01-701-1097","Xanomeline Low Dose",54,"Xanomeline Low Dose",54,19724,19913,68,"65-80",2,"WHITE",1,"M","Y","","Y","Week 24",24,169,19892,"WEEK 24",12,"","Bilirubin (umol/L)","BILI",3,"CHEM",10.26,6.84,3,21,3.4,0.5,2.3,0.3,"","",null,"R2A1HI > 1.5","N",0],
[268,"CDISCPILOT01","1097","01-701-1097","Xanomeline Low Dose",54,"Xanomeline Low Dose",54,19724,19913,68,"65-80",2,"WHITE",1,"M","Y","","Y","Week 24",24,null,null,"",null,"DERIVED","Bilirubin 1.5 x ULN","BILIHY",4,"HYLAW",0,0,null,null,null,null,null,null,"","Normal to Normal",1,"","",null],
[269,"CDISCPILOT01","1097","01-701-1097","Xanomeline Low Dose",54,"Xanomeline Low Dose",54,19724,19913,68,"65-80",2,"WHITE",1,"M","Y","","Y","Week 24",24,null,null,"",null,"DERIVED","Transaminase 1.5 x ULN","TRANSHY",5,"HYLAW",0,0,null,null,null,null,null,null,"","Normal to Normal",1,"","",null],
[270,"CDISCPILOT01","1097","01-701-1097","Xanomeline Low Dose",54,"Xanomeline Low Dose",54,19724,19913,68,"65-80",2,"WHITE",1,"M","Y","","Y","Week 24",24,null,null,"",null,"DERIVED","Total Bili 1.5 x ULN and Transaminase 1.5 x ULN","HYLAW",6,"HYLAW",0,0,null,null,null,null,null,null,"","Normal to Normal",1,"","",null],
[271,"CDISCPILOT01","1111","01-701-1111","Xanomeline Low Dose",54,"Xanomeline Low Dose",54,19243,19252,81,">80",3,"WHITE",1,"F","N","Y","Y","Baseline",0,-13,19230,"SCREENING 1",1,"","Alanine Aminotransferase (U/L)","ALT",1,"CHEM",23,23,6,32,3.8,0.7,3.8,0.7,"Y","",null,"R2A1HI > 1.5","N",0],
[272,"CDISCPILOT01","1111","01-701-1111","Xanomeline Low Dose",54,"Xanomeline Low Dose",54,19243,19252,81,">80",3,"WHITE",1,"F","N","Y","Y","Baseline",0,-13,19230,"SCREENING 1",1,"","Aspartate Aminotransferase (U/L)","AST",2,"CHEM",28,28,9,34,3.1,0.8,3.1,0.8,"Y","",null,"R2A1HI > 1.5","N",0],
[273,"CDISCPILOT01","1111","01-701-1111","Xanomeline Low Dose",54,"Xanomeline Low Dose",54,19243,19252,81,">80",3,"WHITE",1,"F","N","Y","Y","Baseline",0,-13,19230,"SCREENING 1",1,"","Bilirubin (umol/L)","BILI",3,"CHEM",6.84,6.84,3,21,2.3,0.3,2.3,0.3,"Y","",null,"R2A1HI > 1.5","N",0],
[274,"CDISCPILOT01","1111","01-701-1111","Xanomeline Low Dose",54,"Xanomeline Low Dose",54,19243,19252,81,">80",3,"WHITE",1,"F","N","Y","Y","Baseline",0,null,null,"",null,"DERIVED","Bilirubin 1.5 x ULN","BILIHY",4,"HYLAW",0,0,null,null,null,null,null,null,"Y","Normal to Normal",1,"","",null],
[275,"CDISCPILOT01","1111","01-701-1111","Xanomeline Low Dose",54,"Xanomeline Low Dose",54,19243,19252,81,">80",3,"WHITE",1,"F","N","Y","Y","Baseline",0,null,null,"",null,"DERIVED","Transaminase 1.5 x ULN","TRANSHY",5,"HYLAW",0,0,null,null,null,null,null,null,"Y","Normal to Normal",1,"","",null],
[276,"CDISCPILOT01","1111","01-701-1111","Xanomeline Low Dose",54,"Xanomeline Low Dose",54,19243,19252,81,">80",3,"WHITE",1,"F","N","Y","Y","Baseline",0,null,null,"",null,"DERIVED","Total Bili 1.5 x ULN and Transaminase 1.5 x ULN","HYLAW",6,"HYLAW",0,0,null,null,null,null,null,null,"Y","Normal to Normal",1,"","",null],
[277,"CDISCPILOT01","1111","01-701-1111","Xanomeline Low Dose",54,"Xanomeline Low Dose",54,19243,19252,81,">80",3,"WHITE",1,"F","N","Y","Y","Week 2",2,11,19253,"WEEK 2",4,"","Alanine Aminotransferase (U/L)","ALT",1,"CHEM",19,23,6,32,3.2,0.6,3.8,0.7,"","",null,"R2A1HI > 1.5","N",0],
[278,"CDISCPILOT01","1111","01-701-1111","Xanomeline Low Dose",54,"Xanomeline Low Dose",54,19243,19252,81,">80",3,"WHITE",1,"F","N","Y","Y","Week 2",2,11,19253,"WEEK 2",4,"","Aspartate Aminotransferase (U/L)","AST",2,"CHEM",23,28,9,34,2.6,0.7,3.1,0.8,"","",null,"R2A1HI > 1.5","N",0],
[279,"CDISCPILOT01","1111","01-701-1111","Xanomeline Low Dose",54,"Xanomeline Low Dose",54,19243,19252,81,">80",3,"WHITE",1,"F","N","Y","Y","Week 2",2,11,19253,"WEEK 2",4,"","Bilirubin (umol/L)","BILI",3,"CHEM",8.55,6.84,3,21,2.8,0.4,2.3,0.3,"","",null,"R2A1HI > 1.5","N",0],
[280,"CDISCPILOT01","1111","01-701-1111","Xanomeline Low Dose",54,"Xanomeline Low Dose",54,19243,19252,81,">80",3,"WHITE",1,"F","N","Y","Y","Week 2",2,null,null,"",null,"DERIVED","Bilirubin 1.5 x ULN","BILIHY",4,"HYLAW",0,0,null,null,null,null,null,null,"","Normal to Normal",1,"","",null],
[281,"CDISCPILOT01","1111","01-701-1111","Xanomeline Low Dose",54,"Xanomeline Low Dose",54,19243,19252,81,">80",3,"WHITE",1,"F","N","Y","Y","Week 2",2,null,null,"",null,"DERIVED","Transaminase 1.5 x ULN","TRANSHY",5,"HYLAW",0,0,null,null,null,null,null,null,"","Normal to Normal",1,"","",null],
[282,"CDISCPILOT01","1111","01-701-1111","Xanomeline Low Dose",54,"Xanomeline Low Dose",54,19243,19252,81,">80",3,"WHITE",1,"F","N","Y","Y","Week 2",2,null,null,"",null,"DERIVED","Total Bili 1.5 x ULN and Transaminase 1.5 x ULN","HYLAW",6,"HYLAW",0,0,null,null,null,null,null,null,"","Normal to Normal",1,"","",null],
[283,"CDISCPILOT01","1115","01-701-1115","Xanomeline Low Dose",54,"Xanomeline Low Dose",54,19327,19381,84,">80",3,"WHITE",1,"M","N","Y","Y","Baseline",0,-7,19320,"SCREENING 1",1,"","Alanine Aminotransferase (U/L)","ALT",1,"CHEM",18,18,6,35,3,0.5,3,0.5,"Y","",null,"R2A1HI > 1.5","N",0],
[284,"CDISCPILOT01","1115","01-701-1115","Xanomeline Low Dose",54,"Xanomeline Low Dose",54,19327,19381,84,">80",3,"WHITE",1,"M","N","Y","Y","Baseline",0,-7,19320,"SCREENING 1",1,"","Aspartate Aminotransferase (U/L)","AST",2,"CHEM",26,26,11,36,2.4,0.7,2.4,0.7,"Y","",null,"R2A1HI > 1.5","N",0],
[285,"CDISCPILOT01","1115","01-701-1115","Xanomeline Low Dose",54,"Xanomeline Low Dose",54,19327,19381,84,">80",3,"WHITE",1,"M","N","Y","Y","Baseline",0,-7,19320,"SCREENING 1",1,"","Bilirubin (umol/L)","BILI",3,"CHEM",8.55,8.55,3,21,2.8,0.4,2.8,0.4,"Y","",null,"R2A1HI > 1.5","N",0],
[286,"CDISCPILOT01","1115","01-701-1115","Xanomeline Low Dose",54,"Xanomeline Low Dose",54,19327,19381,84,">80",3,"WHITE",1,"M","N","Y","Y","Baseline",0,null,null,"",null,"DERIVED","Bilirubin 1.5 x ULN","BILIHY",4,"HYLAW",0,0,null,null,null,null,null,null,"Y","Normal to Normal",1,"","",null],
[287,"CDISCPILOT01","1115","01-701-1115","Xanomeline Low Dose",54,"Xanomeline Low Dose",54,19327,19381,84,">80",3,"WHITE",1,"M","N","Y","Y","Baseline",0,null,null,"",null,"DERIVED","Transaminase 1.5 x ULN","TRANSHY",5,"HYLAW",0,0,null,null,null,null,null,null,"Y","Normal to Normal",1,"","",null],
[288,"CDISCPILOT01","1115","01-701-1115","Xanomeline Low Dose",54,"Xanomeline Low Dose",54,19327,19381,84,">80",3,"WHITE",1,"M","N","Y","Y","Baseline",0,null,null,"",null,"DERIVED","Total Bili 1.5 x ULN and Transaminase 1.5 x ULN","HYLAW",6,"HYLAW",0,0,null,null,null,null,null,null,"Y","Normal to Normal",1,"","",null],
[289,"CDISCPILOT01","1115","01-701-1115","Xanomeline Low Dose",54,"Xanomeline Low Dose",54,19327,19381,84,">80",3,"WHITE",1,"M","N","Y","Y","Week 2",2,14,19340,"WEEK 2",4,"","Alanine Aminotransferase (U/L)","ALT",1,"CHEM",15,18,6,35,2.5,0.4,3,0.5,"","",null,"R2A1HI > 1.5","N",0],
[290,"CDISCPILOT01","1115","01-701-1115","Xanomeline Low Dose",54,"Xanomeline Low Dose",54,19327,19381,84,">80",3,"WHITE",1,"M","N","Y","Y","Week 2",2,14,19340,"WEEK 2",4,"","Aspartate Aminotransferase (U/L)","AST",2,"CHEM",25,26,11,36,2.3,0.7,2.4,0.7,"","",null,"R2A1HI > 1.5","N",0],
[291,"CDISCPILOT01","1115","01-701-1115","Xanomeline Low Dose",54,"Xanomeline Low Dose",54,19327,19381,84,">80",3,"WHITE",1,"M","N","Y","Y","Week 2",2,14,19340,"WEEK 2",4,"","Bilirubin (umol/L)","BILI",3,"CHEM",6.84,8.55,3,21,2.3,0.3,2.8,0.4,"","",null,"R2A1HI > 1.5","N",0],
[292,"CDISCPILOT01","1115","01-701-1115","Xanomeline Low Dose",54,"Xanomeline Low Dose",54,19327,19381,84,">80",3,"WHITE",1,"M","N","Y","Y","Week 2",2,null,null,"",null,"DERIVED","Bilirubin 1.5 x ULN","BILIHY",4,"HYLAW",0,0,null,null,null,null,null,null,"","Normal to Normal",1,"","",null],
[293,"CDISCPILOT01","1115","01-701-1115","Xanomeline Low Dose",54,"Xanomeline Low Dose",54,19327,19381,84,">80",3,"WHITE",1,"M","N","Y","Y","Week 2",2,null,null,"",null,"DERIVED","Transaminase 1.5 x ULN","TRANSHY",5,"HYLAW",0,0,null,null,null,null,null,null,"","Normal to Normal",1,"","",null],
[294,"CDISCPILOT01","1115","01-701-1115","Xanomeline Low Dose",54,"Xanomeline Low Dose",54,19327,19381,84,">80",3,"WHITE",1,"M","N","Y","Y","Week 2",2,null,null,"",null,"DERIVED","Total Bili 1.5 x ULN and Transaminase 1.5 x ULN","HYLAW",6,"HYLAW",0,0,null,null,null,null,null,null,"","Normal to Normal",1,"","",null],
[295,"CDISCPILOT01","1115","01-701-1115","Xanomeline Low Dose",54,"Xanomeline Low Dose",54,19327,19381,84,">80",3,"WHITE",1,"M","N","Y","Y","Week 4",4,27,19353,"WEEK 4",5,"","Alanine Aminotransferase (U/L)","ALT",1,"CHEM",13,18,6,35,2.2,0.4,3,0.5,"","",null,"R2A1HI > 1.5","N",0],
[296,"CDISCPILOT01","1115","01-701-1115","Xanomeline Low Dose",54,"Xanomeline Low Dose",54,19327,19381,84,">80",3,"WHITE",1,"M","N","Y","Y","Week 4",4,27,19353,"WEEK 4",5,"","Aspartate Aminotransferase (U/L)","AST",2,"CHEM",20,26,11,36,1.8,0.6,2.4,0.7,"","",null,"R2A1HI > 1.5","N",0],
[297,"CDISCPILOT01","1115","01-701-1115","Xanomeline Low Dose",54,"Xanomeline Low Dose",54,19327,19381,84,">80",3,"WHITE",1,"M","N","Y","Y","Week 4",4,27,19353,"WEEK 4",5,"","Bilirubin (umol/L)","BILI",3,"CHEM",6.84,8.55,3,21,2.3,0.3,2.8,0.4,"","",null,"R2A1HI > 1.5","N",0],
[298,"CDISCPILOT01","1115","01-701-1115","Xanomeline Low Dose",54,"Xanomeline Low Dose",54,19327,19381,84,">80",3,"WHITE",1,"M","N","Y","Y","Week 4",4,null,null,"",null,"DERIVED","Bilirubin 1.5 x ULN","BILIHY",4,"HYLAW",0,0,null,null,null,null,null,null,"","Normal to Normal",1,"","",null],
[299,"CDISCPILOT01","1115","01-701-1115","Xanomeline Low Dose",54,"Xanomeline Low Dose",54,19327,19381,84,">80",3,"WHITE",1,"M","N","Y","Y","Week 4",4,null,null,"",null,"DERIVED","Transaminase 1.5 x ULN","TRANSHY",5,"HYLAW",0,0,null,null,null,null,null,null,"","Normal to Normal",1,"","",null],
[300,"CDISCPILOT01","1115","01-701-1115","Xanomeline Low Dose",54,"Xanomeline Low Dose",54,19327,19381,84,">80",3,"WHITE",1,"M","N","Y","Y","Week 4",4,null,null,"",null,"DERIVED","Total Bili 1.5 x ULN and Transaminase 1.5 x ULN","HYLAW",6,"HYLAW",0,0,null,null,null,null,null,null,"","Normal to Normal",1,"","",null],
[301,"CDISCPILOT01","1115","01-701-1115","Xanomeline Low Dose",54,"Xanomeline Low Dose",54,19327,19381,84,">80",3,"WHITE",1,"M","N","Y","Y","Week 6",6,42,19368,"WEEK 6",7,"","Alanine Aminotransferase (U/L)","ALT",1,"CHEM",18,18,6,35,3,0.5,3,0.5,"","",null,"R2A1HI > 1.5","N",0],
[302,"CDISCPILOT01","1115","01-701-1115","Xanomeline Low Dose",54,"Xanomeline Low Dose",54,19327,19381,84,">80",3,"WHITE",1,"M","N","Y","Y","Week 6",6,42,19368,"WEEK 6",7,"","Aspartate Aminotransferase (U/L)","AST",2,"CHEM",25,26,11,36,2.3,0.7,2.4,0.7,"","",null,"R2A1HI > 1.5","N",0],
[303,"CDISCPILOT01","1115","01-701-1115","Xanomeline Low Dose",54,"Xanomeline Low Dose",54,19327,19381,84,">80",3,"WHITE",1,"M","N","Y","Y","Week 6",6,42,19368,"WEEK 6",7,"","Bilirubin (umol/L)","BILI",3,"CHEM",6.84,8.55,3,21,2.3,0.3,2.8,0.4,"","",null,"R2A1HI > 1.5","N",0],
[304,"CDISCPILOT01","1115","01-701-1115","Xanomeline Low Dose",54,"Xanomeline Low Dose",54,19327,19381,84,">80",3,"WHITE",1,"M","N","Y","Y","Week 6",6,null,null,"",null,"DERIVED","Bilirubin 1.5 x ULN","BILIHY",4,"HYLAW",0,0,null,null,null,null,null,null,"","Normal to Normal",1,"","",null],
[305,"CDISCPILOT01","1115","01-701-1115","Xanomeline Low Dose",54,"Xanomeline Low Dose",54,19327,19381,84,">80",3,"WHITE",1,"M","N","Y","Y","Week 6",6,null,null,"",null,"DERIVED","Transaminase 1.5 x ULN","TRANSHY",5,"HYLAW",0,0,null,null,null,null,null,null,"","Normal to Normal",1,"","",null],
[306,"CDISCPILOT01","1115","01-701-1115","Xanomeline Low Dose",54,"Xanomeline Low Dose",54,19327,19381,84,">80",3,"WHITE",1,"M","N","Y","Y","Week 6",6,null,null,"",null,"DERIVED","Total Bili 1.5 x ULN and Transaminase 1.5 x ULN","HYLAW",6,"HYLAW",0,0,null,null,null,null,null,null,"","Normal to Normal",1,"","",null],
[307,"CDISCPILOT01","1115","01-701-1115","Xanomeline Low Dose",54,"Xanomeline Low Dose",54,19327,19381,84,">80",3,"WHITE",1,"M","N","Y","Y","Week 8",8,55,19381,"WEEK 8",8,"","Alanine Aminotransferase (U/L)","ALT",1,"CHEM",16,18,6,35,2.7,0.5,3,0.5,"","",null,"R2A1HI > 1.5","N",0],
[308,"CDISCPILOT01","1115","01-701-1115","Xanomeline Low Dose",54,"Xanomeline Low Dose",54,19327,19381,84,">80",3,"WHITE",1,"M","N","Y","Y","Week 8",8,55,19381,"WEEK 8",8,"","Aspartate Aminotransferase (U/L)","AST",2,"CHEM",25,26,11,36,2.3,0.7,2.4,0.7,"","",null,"R2A1HI > 1.5","N",0],
[309,"CDISCPILOT01","1115","01-701-1115","Xanomeline Low Dose",54,"Xanomeline Low Dose",54,19327,19381,84,">80",3,"WHITE",1,"M","N","Y","Y","Week 8",8,55,19381,"WEEK 8",8,"","Bilirubin (umol/L)","BILI",3,"CHEM",8.55,8.55,3,21,2.8,0.4,2.8,0.4,"","",null,"R2A1HI > 1.5","N",0],
[310,"CDISCPILOT01","1115","01-701-1115","Xanomeline Low Dose",54,"Xanomeline Low Dose",54,19327,19381,84,">80",3,"WHITE",1,"M","N","Y","Y","Week 8",8,null,null,"",null,"DERIVED","Bilirubin 1.5 x ULN","BILIHY",4,"HYLAW",0,0,null,null,null,null,null,null,"","Normal to Normal",1,"","",null],
[311,"CDISCPILOT01","1115","01-701-1115","Xanomeline Low Dose",54,"Xanomeline Low Dose",54,19327,19381,84,">80",3,"WHITE",1,"M","N","Y","Y","Week 8",8,null,null,"",null,"DERIVED","Transaminase 1.5 x ULN","TRANSHY",5,"HYLAW",0,0,null,null,null,null,null,null,"","Normal to Normal",1,"","",null],
[312,"CDISCPILOT01","1115","01-701-1115","Xanomeline Low Dose",54,"Xanomeline Low Dose",54,19327,19381,84,">80",3,"WHITE",1,"M","N","Y","Y","Week 8",8,null,null,"",null,"DERIVED","Total Bili 1.5 x ULN and Transaminase 1.5 x ULN","HYLAW",6,"HYLAW",0,0,null,null,null,null,null,null,"","Normal to Normal",1,"","",null],
[313,"CDISCPILOT01","1118","01-701-1118","Placebo",0,"Placebo",0,19794,19975,52,"<65",1,"WHITE",1,"M","Y","","Y","Baseline",0,-13,19781,"SCREENING 1",1,"","Alanine Aminotransferase (U/L)","ALT",1,"CHEM",15,15,6,43,2.5,0.3,2.5,0.3,"Y","",null,"R2A1HI > 1.5","N",0],
[314,"CDISCPILOT01","1118","01-701-1118","Placebo",0,"Placebo",0,19794,19975,52,"<65",1,"WHITE",1,"M","Y","","Y","Baseline",0,-13,19781,"SCREENING 1",1,"","Aspartate Aminotransferase (U/L)","AST",2,"CHEM",15,15,11,36,1.4,0.4,1.4,0.4,"Y","",null,"R2A1HI > 1.5","N",0],
[315,"CDISCPILOT01","1118","01-701-1118","Placebo",0,"Placebo",0,19794,19975,52,"<65",1,"WHITE",1,"M","Y","","Y","Baseline",0,-13,19781,"SCREENING 1",1,"","Bilirubin (umol/L)","BILI",3,"CHEM",11.97,11.97,3,21,4,0.6,4,0.6,"Y","",null,"R2A1HI > 1.5","N",0],
[316,"CDISCPILOT01","1118","01-701-1118","Placebo",0,"Placebo",0,19794,19975,52,"<65",1,"WHITE",1,"M","Y","","Y","Baseline",0,null,null,"",null,"DERIVED","Bilirubin 1.5 x ULN","BILIHY",4,"HYLAW",0,0,null,null,null,null,null,null,"Y","Normal to Normal",1,"","",null],
[317,"CDISCPILOT01","1118","01-701-1118","Placebo",0,"Placebo",0,19794,19975,52,"<65",1,"WHITE",1,"M","Y","","Y","Baseline",0,null,null,"",null,"DERIVED","Transaminase 1.5 x ULN","TRANSHY",5,"HYLAW",0,0,null,null,null,null,null,null,"Y","Normal to Normal",1,"","",null],
[318,"CDISCPILOT01","1118","01-701-1118","Placebo",0,"Placebo",0,19794,19975,52,"<65",1,"WHITE",1,"M","Y","","Y","Baseline",0,null,null,"",null,"DERIVED","Total Bili 1.5 x ULN and Transaminase 1.5 x ULN","HYLAW",6,"HYLAW",0,0,null,null,null,null,null,null,"Y","Normal to Normal",1,"","",null],
[319,"CDISCPILOT01","1118","01-701-1118","Placebo",0,"Placebo",0,19794,19975,52,"<65",1,"WHITE",1,"M","Y","","Y","Week 2",2,15,19808,"WEEK 2",4,"","Alanine Aminotransferase (U/L)","ALT",1,"CHEM",7,15,6,43,1.2,0.2,2.5,0.3,"","",null,"R2A1HI > 1.5","N",0],
[320,"CDISCPILOT01","1118","01-701-1118","Placebo",0,"Placebo",0,19794,19975,52,"<65",1,"WHITE",1,"M","Y","","Y","Week 2",2,15,19808,"WEEK 2",4,"","Aspartate Aminotransferase (U/L)","AST",2,"CHEM",13,15,11,36,1.2,0.4,1.4,0.4,"","",null,"R2A1HI > 1.5","N",0],
[321,"CDISCPILOT01","1118","01-701-1118","Placebo",0,"Placebo",0,19794,19975,52,"<65",1,"WHITE",1,"M","Y","","Y","Week 2",2,15,19808,"WEEK 2",4,"","Bilirubin (umol/L)","BILI",3,"CHEM",8.55,11.97,3,21,2.8,0.4,4,0.6,"","",null,"R2A1HI > 1.5","N",0],
[322,"CDISCPILOT01","1118","01-701-1118","Placebo",0,"Placebo",0,19794,19975,52,"<65",1,"WHITE",1,"M","Y","","Y","Week 2",2,null,null,"",null,"DERIVED","Bilirubin 1.5 x ULN","BILIHY",4,"HYLAW",0,0,null,null,null,null,null,null,"","Normal to Normal",1,"","",null],
[323,"CDISCPILOT01","1118","01-701-1118","Placebo",0,"Placebo",0,19794,19975,52,"<65",1,"WHITE",1,"M","Y","","Y","Week 2",2,null,null,"",null,"DERIVED","Transaminase 1.5 x ULN","TRANSHY",5,"HYLAW",0,0,null,null,null,null,null,null,"","Normal to Normal",1,"","",null],
[324,"CDISCPILOT01","1118","01-701-1118","Placebo",0,"Placebo",0,19794,19975,52,"<65",1,"WHITE",1,"M","Y","","Y","Week 2",2,null,null,"",null,"DERIVED","Total Bili 1.5 x ULN and Transaminase 1.5 x ULN","HYLAW",6,"HYLAW",0,0,null,null,null,null,null,null,"","Normal to Normal",1,"","",null],
[325,"CDISCPILOT01","1118","01-701-1118","Placebo",0,"Placebo",0,19794,19975,52,"<65",1,"WHITE",1,"M","Y","","Y","Week 4",4,29,19822,"WEEK 4",5,"","Alanine Aminotransferase (U/L)","ALT",1,"CHEM",15,15,6,43,2.5,0.3,2.5,0.3,"","",null,"R2A1HI > 1.5","N",0],
[326,"CDISCPILOT01","1118","01-701-1118","Placebo",0,"Placebo",0,19794,19975,52,"<65",1,"WHITE",1,"M","Y","","Y","Week 4",4,29,19822,"WEEK 4",5,"","Aspartate Aminotransferase (U/L)","AST",2,"CHEM",14,15,11,36,1.3,0.4,1.4,0.4,"","",null,"R2A1HI > 1.5","N",0],
[327,"CDISCPILOT01","1118","01-701-1118","Placebo",0,"Placebo",0,19794,19975,52,"<65",1,"WHITE",1,"M","Y","","Y","Week 4",4,29,19822,"WEEK 4",5,"","Bilirubin (umol/L)","BILI",3,"CHEM",10.26,11.97,3,21,3.4,0.5,4,0.6,"","",null,"R2A1HI > 1.5","N",0],
[328,"CDISCPILOT01","1118","01-701-1118","Placebo",0,"Placebo",0,19794,19975,52,"<65",1,"WHITE",1,"M","Y","","Y","Week 4",4,null,null,"",null,"DERIVED","Bilirubin 1.5 x ULN","BILIHY",4,"HYLAW",0,0,null,null,null,null,null,null,"","Normal to Normal",1,"","",null],
[329,"CDISCPILOT01","1118","01-701-1118","Placebo",0,"Placebo",0,19794,19975,52,"<65",1,"WHITE",1,"M","Y","","Y","Week 4",4,null,null,"",null,"DERIVED","Transaminase 1.5 x ULN","TRANSHY",5,"HYLAW",0,0,null,null,null,null,null,null,"","Normal to Normal",1,"","",null],
[330,"CDISCPILOT01","1118","01-701-1118","Placebo",0,"Placebo",0,19794,19975,52,"<65",1,"WHITE",1,"M","Y","","Y","Week 4",4,null,null,"",null,"DERIVED","Total Bili 1.5 x ULN and Transaminase 1.5 x ULN","HYLAW",6,"HYLAW",0,0,null,null,null,null,null,null,"","Normal to Normal",1,"","",null],
[331,"CDISCPILOT01","1118","01-701-1118","Placebo",0,"Placebo",0,19794,19975,52,"<65",1,"WHITE",1,"M","Y","","Y","Week 6",6,43,19836,"WEEK 6",7,"","Alanine Aminotransferase (U/L)","ALT",1,"CHEM",11,15,6,43,1.8,0.3,2.5,0.3,"","",null,"R2A1HI > 1.5","N",0],
[332,"CDISCPILOT01","1118","01-701-1118","Placebo",0,"Placebo",0,19794,19975,52,"<65",1,"WHITE",1,"M","Y","","Y","Week 6",6,43,19836,"WEEK 6",7,"","Aspartate Aminotransferase (U/L)","AST",2,"CHEM",15,15,11,36,1.4,0.4,1.4,0.4,"","",null,"R2A1HI > 1.5","N",0],
[333,"CDISCPILOT01","1118","01-701-1118","Placebo",0,"Placebo",0,19794,19975,52,"<65",1,"WHITE",1,"M","Y","","Y","Week 6",6,43,19836,"WEEK 6",7,"","Bilirubin (umol/L)","BILI",3,"CHEM",8.55,11.97,3,21,2.8,0.4,4,0.6,"","",null,"R2A1HI > 1.5","N",0],
[334,"CDISCPILOT01","1118","01-701-1118","Placebo",0,"Placebo",0,19794,19975,52,"<65",1,"WHITE",1,"M","Y","","Y","Week 6",6,null,null,"",null,"DERIVED","Bilirubin 1.5 x ULN","BILIHY",4,"HYLAW",0,0,null,null,null,null,null,null,"","Normal to Normal",1,"","",null],
[335,"CDISCPILOT01","1118","01-701-1118","Placebo",0,"Placebo",0,19794,19975,52,"<65",1,"WHITE",1,"M","Y","","Y","Week 6",6,null,null,"",null,"DERIVED","Transaminase 1.5 x ULN","TRANSHY",5,"HYLAW",0,0,null,null,null,null,null,null,"","Normal to Normal",1,"","",null],
[336,"CDISCPILOT01","1118","01-701-1118","Placebo",0,"Placebo",0,19794,19975,52,"<65",1,"WHITE",1,"M","Y","","Y","Week 6",6,null,null,"",null,"DERIVED","Total Bili 1.5 x ULN and Transaminase 1.5 x ULN","HYLAW",6,"HYLAW",0,0,null,null,null,null,null,null,"","Normal to Normal",1,"","",null],
[337,"CDISCPILOT01","1118","01-701-1118","Placebo",0,"Placebo",0,19794,19975,52,"<65",1,"WHITE",1,"M","Y","","Y","Week 8",8,58,19851,"WEEK 8",8,"","Alanine Aminotransferase (U/L)","ALT",1,"CHEM",15,15,6,43,2.5,0.3,2.5,0.3,"","",null,"R2A1HI > 1.5","N",0],
[338,"CDISCPILOT01","1118","01-701-1118","Placebo",0,"Placebo",0,19794,19975,52,"<65",1,"WHITE",1,"M","Y","","Y","Week 8",8,58,19851,"WEEK 8",8,"","Aspartate Aminotransferase (U/L)","AST",2,"CHEM",18,15,11,36,1.6,0.5,1.4,0.4,"","",null,"R2A1HI > 1.5","N",0],
[339,"CDISCPILOT01","1118","01-701-1118","Placebo",0,"Placebo",0,19794,19975,52,"<65",1,"WHITE",1,"M","Y","","Y","Week 8",8,58,19851,"WEEK 8",8,"","Bilirubin (umol/L)","BILI",3,"CHEM",10.26,11.97,3,21,3.4,0.5,4,0.6,"","",null,"R2A1HI > 1.5","N",0],
[340,"CDISCPILOT01","1118","01-701-1118","Placebo",0,"Placebo",0,19794,19975,52,"<65",1,"WHITE",1,"M","Y","","Y","Week 8",8,null,null,"",null,"DERIVED","Bilirubin 1.5 x ULN","BILIHY",4,"HYLAW",0,0,null,null,null,null,null,null,"","Normal to Normal",1,"","",null],
[341,"CDISCPILOT01","1118","01-701-1118","Placebo",0,"Placebo",0,19794,19975,52,"<65",1,"WHITE",1,"M","Y","","Y","Week 8",8,null,null,"",null,"DERIVED","Transaminase 1.5 x ULN","TRANSHY",5,"HYLAW",0,0,null,null,null,null,null,null,"","Normal to Normal",1,"","",null],
[342,"CDISCPILOT01","1118","01-701-1118","Placebo",0,"Placebo",0,19794,19975,52,"<65",1,"WHITE",1,"M","Y","","Y","Week 8",8,null,null,"",null,"DERIVED","Total Bili 1.5 x ULN and Transaminase 1.5 x ULN","HYLAW",6,"HYLAW",0,0,null,null,null,null,null,null,"","Normal to Normal",1,"","",null],
[343,"CDISCPILOT01","1118","01-701-1118","Placebo",0,"Placebo",0,19794,19975,52,"<65",1,"WHITE",1,"M","Y","","Y","Week 12",12,86,19879,"WEEK 12",9,"","Alanine Aminotransferase (U/L)","ALT",1,"CHEM",16,15,6,43,2.7,0.4,2.5,0.3,"","",null,"R2A1HI > 1.5","N",0],
[344,"CDISCPILOT01","1118","01-701-1118","Placebo",0,"Placebo",0,19794,19975,52,"<65",1,"WHITE",1,"M","Y","","Y","Week 12",12,86,19879,"WEEK 12",9,"","Aspartate Aminotransferase (U/L)","AST",2,"CHEM",13,15,11,36,1.2,0.4,1.4,0.4,"","",null,"R2A1HI > 1.5","N",0],
[345,"CDISCPILOT01","1118","01-701-1118","Placebo",0,"Placebo",0,19794,19975,52,"<65",1,"WHITE",1,"M","Y","","Y","Week 12",12,86,19879,"WEEK 12",9,"","Bilirubin (umol/L)","BILI",3,"CHEM",8.55,11.97,3,21,2.8,0.4,4,0.6,"","",null,"R2A1HI > 1.5","N",0],
[346,"CDISCPILOT01","1118","01-701-1118","Placebo",0,"Placebo",0,19794,19975,52,"<65",1,"WHITE",1,"M","Y","","Y","Week 12",12,null,null,"",null,"DERIVED","Bilirubin 1.5 x ULN","BILIHY",4,"HYLAW",0,0,null,null,null,null,null,null,"","Normal to Normal",1,"","",null],
[347,"CDISCPILOT01","1118","01-701-1118","Placebo",0,"Placebo",0,19794,19975,52,"<65",1,"WHITE",1,"M","Y","","Y","Week 12",12,null,null,"",null,"DERIVED","Transaminase 1.5 x ULN","TRANSHY",5,"HYLAW",0,0,null,null,null,null,null,null,"","Normal to Normal",1,"","",null],
[348,"CDISCPILOT01","1118","01-701-1118","Placebo",0,"Placebo",0,19794,19975,52,"<65",1,"WHITE",1,"M","Y","","Y","Week 12",12,null,null,"",null,"DERIVED","Total Bili 1.5 x ULN and Transaminase 1.5 x ULN","HYLAW",6,"HYLAW",0,0,null,null,null,null,null,null,"","Normal to Normal",1,"","",null],
[349,"CDISCPILOT01","1118","01-701-1118","Placebo",0,"Placebo",0,19794,19975,52,"<65",1,"WHITE",1,"M","Y","","Y","Week 16",16,113,19906,"WEEK 16",10,"","Alanine Aminotransferase (U/L)","ALT",1,"CHEM",15,15,6,43,2.5,0.3,2.5,0.3,"","",null,"R2A1HI > 1.5","N",0],
[350,"CDISCPILOT01","1118","01-701-1118","Placebo",0,"Placebo",0,19794,19975,52,"<65",1,"WHITE",1,"M","Y","","Y","Week 16",16,113,19906,"WEEK 16",10,"","Aspartate Aminotransferase (U/L)","AST",2,"CHEM",18,15,11,36,1.6,0.5,1.4,0.4,"","",null,"R2A1HI > 1.5","N",0],
[351,"CDISCPILOT01","1118","01-701-1118","Placebo",0,"Placebo",0,19794,19975,52,"<65",1,"WHITE",1,"M","Y","","Y","Week 16",16,113,19906,"WEEK 16",10,"","Bilirubin (umol/L)","BILI",3,"CHEM",10.26,11.97,3,21,3.4,0.5,4,0.6,"","",null,"R2A1HI > 1.5","N",0],
[352,"CDISCPILOT01","1118","01-701-1118","Placebo",0,"Placebo",0,19794,19975,52,"<65",1,"WHITE",1,"M","Y","","Y","Week 16",16,null,null,"",null,"DERIVED","Bilirubin 1.5 x ULN","BILIHY",4,"HYLAW",0,0,null,null,null,null,null,null,"","Normal to Normal",1,"","",null],
[353,"CDISCPILOT01","1118","01-701-1118","Placebo",0,"Placebo",0,19794,19975,52,"<65",1,"WHITE",1,"M","Y","","Y","Week 16",16,null,null,"",null,"DERIVED","Transaminase 1.5 x ULN","TRANSHY",5,"HYLAW",0,0,null,null,null,null,null,null,"","Normal to Normal",1,"","",null],
[354,"CDISCPILOT01","1118","01-701-1118","Placebo",0,"Placebo",0,19794,19975,52,"<65",1,"WHITE",1,"M","Y","","Y","Week 16",16,null,null,"",null,"DERIVED","Total Bili 1.5 x ULN and Transaminase 1.5 x ULN","HYLAW",6,"HYLAW",0,0,null,null,null,null,null,null,"","Normal to Normal",1,"","",null],
[355,"CDISCPILOT01","1118","01-701-1118","Placebo",0,"Placebo",0,19794,19975,52,"<65",1,"WHITE",1,"M","Y","","Y","Week 20",20,141,19934,"WEEK 20",11,"","Alanine Aminotransferase (U/L)","ALT",1,"CHEM",13,15,6,43,2.2,0.3,2.5,0.3,"","",null,"R2A1HI > 1.5","N",0],
[356,"CDISCPILOT01","1118","01-701-1118","Placebo",0,"Placebo",0,19794,19975,52,"<65",1,"WHITE",1,"M","Y","","Y","Week 20",20,141,19934,"WEEK 20",11,"","Aspartate Aminotransferase (U/L)","AST",2,"CHEM",14,15,11,36,1.3,0.4,1.4,0.4,"","",null,"R2A1HI > 1.5","N",0],
[357,"CDISCPILOT01","1118","01-701-1118","Placebo",0,"Placebo",0,19794,19975,52,"<65",1,"WHITE",1,"M","Y","","Y","Week 20",20,141,19934,"WEEK 20",11,"","Bilirubin (umol/L)","BILI",3,"CHEM",10.26,11.97,3,21,3.4,0.5,4,0.6,"","",null,"R2A1HI > 1.5","N",0],
[358,"CDISCPILOT01","1118","01-701-1118","Placebo",0,"Placebo",0,19794,19975,52,"<65",1,"WHITE",1,"M","Y","","Y","Week 20",20,null,null,"",null,"DERIVED","Bilirubin 1.5 x ULN","BILIHY",4,"HYLAW",0,0,null,null,null,null,null,null,"","Normal to Normal",1,"","",null],
[359,"CDISCPILOT01","1118","01-701-1118","Placebo",0,"Placebo",0,19794,19975,52,"<65",1,"WHITE",1,"M","Y","","Y","Week 20",20,null,null,"",null,"DERIVED","Transaminase 1.5 x ULN","TRANSHY",5,"HYLAW",0,0,null,null,null,null,null,null,"","Normal to Normal",1,"","",null],
[360,"CDISCPILOT01","1118","01-701-1118","Placebo",0,"Placebo",0,19794,19975,52,"<65",1,"WHITE",1,"M","Y","","Y","Week 20",20,null,null,"",null,"DERIVED","Total Bili 1.5 x ULN and Transaminase 1.5 x ULN","HYLAW",6,"HYLAW",0,0,null,null,null,null,null,null,"","Normal to Normal",1,"","",null],
[361,"CDISCPILOT01","1118","01-701-1118","Placebo",0,"Placebo",0,19794,19975,52,"<65",1,"WHITE",1,"M","Y","","Y","Week 24",24,169,19962,"WEEK 24",12,"","Alanine Aminotransferase (U/L)","ALT",1,"CHEM",13,15,6,43,2.2,0.3,2.5,0.3,"","",null,"R2A1HI > 1.5","N",0],
[362,"CDISCPILOT01","1118","01-701-1118","Placebo",0,"Placebo",0,19794,19975,52,"<65",1,"WHITE",1,"M","Y","","Y","Week 24",24,169,19962,"WEEK 24",12,"","Aspartate Aminotransferase (U/L)","AST",2,"CHEM",11,15,11,36,1,0.3,1.4,0.4,"","",null,"R2A1HI > 1.5","N",0],
[363,"CDISCPILOT01","1118","01-701-1118","Placebo",0,"Placebo",0,19794,19975,52,"<65",1,"WHITE",1,"M","Y","","Y","Week 24",24,169,19962,"WEEK 24",12,"","Bilirubin (umol/L)","BILI",3,"CHEM",8.55,11.97,3,21,2.8,0.4,4,0.6,"","",null,"R2A1HI > 1.5","N",0],
[364,"CDISCPILOT01","1118","01-701-1118","Placebo",0,"Placebo",0,19794,19975,52,"<65",1,"WHITE",1,"M","Y","","Y","Week 24",24,null,null,"",null,"DERIVED","Bilirubin 1.5 x ULN","BILIHY",4,"HYLAW",0,0,null,null,null,null,null,null,"","Normal to Normal",1,"","",null],
[365,"CDISCPILOT01","1118","01-701-1118","Placebo",0,"Placebo",0,19794,19975,52,"<65",1,"WHITE",1,"M","Y","","Y","Week 24",24,null,null,"",null,"DERIVED","Transaminase 1.5 x ULN","TRANSHY",5,"HYLAW",0,0,null,null,null,null,null,null,"","Normal to Normal",1,"","",null],
[366,"CDISCPILOT01","1118","01-701-1118","Placebo",0,"Placebo",0,19794,19975,52,"<65",1,"WHITE",1,"M","Y","","Y","Week 24",24,null,null,"",null,"DERIVED","Total Bili 1.5 x ULN and Transaminase 1.5 x ULN","HYLAW",6,"HYLAW",0,0,null,null,null,null,null,null,"","Normal to Normal",1,"","",null],
[367,"CDISCPILOT01","1130","01-701-1130","Placebo",0,"Placebo",0,19769,19951,84,">80",3,"WHITE",1,"M","Y","","Y","Baseline",0,-6,19763,"SCREENING 1",1,"","Alanine Aminotransferase (U/L)","ALT",1,"CHEM",15,15,6,35,2.5,0.4,2.5,0.4,"Y","",null,"R2A1HI > 1.5","N",0],
[368,"CDISCPILOT01","1130","01-701-1130","Placebo",0,"Placebo",0,19769,19951,84,">80",3,"WHITE",1,"M","Y","","Y","Baseline",0,-6,19763,"SCREENING 1",1,"","Aspartate Aminotransferase (U/L)","AST",2,"CHEM",24,24,11,36,2.2,0.7,2.2,0.7,"Y","",null,"R2A1HI > 1.5","N",0],
[369,"CDISCPILOT01","1130","01-701-1130","Placebo",0,"Placebo",0,19769,19951,84,">80",3,"WHITE",1,"M","Y","","Y","Baseline",0,-6,19763,"SCREENING 1",1,"","Bilirubin (umol/L)","BILI",3,"CHEM",8.55,8.55,3,21,2.8,0.4,2.8,0.4,"Y","",null,"R2A1HI > 1.5","N",0],
[370,"CDISCPILOT01","1130","01-701-1130","Placebo",0,"Placebo",0,19769,19951,84,">80",3,"WHITE",1,"M","Y","","Y","Baseline",0,null,null,"",null,"DERIVED","Bilirubin 1.5 x ULN","BILIHY",4,"HYLAW",0,0,null,null,null,null,null,null,"Y","Normal to Normal",1,"","",null],
[371,"CDISCPILOT01","1130","01-701-1130","Placebo",0,"Placebo",0,19769,19951,84,">80",3,"WHITE",1,"M","Y","","Y","Baseline",0,null,null,"",null,"DERIVED","Transaminase 1.5 x ULN","TRANSHY",5,"HYLAW",0,0,null,null,null,null,null,null,"Y","Normal to Normal",1,"","",null],
[372,"CDISCPILOT01","1130","01-701-1130","Placebo",0,"Placebo",0,19769,19951,84,">80",3,"WHITE",1,"M","Y","","Y","Baseline",0,null,null,"",null,"DERIVED","Total Bili 1.5 x ULN and Transaminase 1.5 x ULN","HYLAW",6,"HYLAW",0,0,null,null,null,null,null,null,"Y","Normal to Normal",1,"","",null],
[373,"CDISCPILOT01","1130","01-701-1130","Placebo",0,"Placebo",0,19769,19951,84,">80",3,"WHITE",1,"M","Y","","Y","Week 2",2,15,19783,"WEEK 2",4,"","Alanine Aminotransferase (U/L)","ALT",1,"CHEM",14,15,6,35,2.3,0.4,2.5,0.4,"","",null,"R2A1HI > 1.5","N",0],
[374,"CDISCPILOT01","1130","01-701-1130","Placebo",0,"Placebo",0,19769,19951,84,">80",3,"WHITE",1,"M","Y","","Y","Week 2",2,15,19783,"WEEK 2",4,"","Aspartate Aminotransferase (U/L)","AST",2,"CHEM",26,24,11,36,2.4,0.7,2.2,0.7,"","",null,"R2A1HI > 1.5","N",0],
[375,"CDISCPILOT01","1130","01-701-1130","Placebo",0,"Placebo",0,19769,19951,84,">80",3,"WHITE",1,"M","Y","","Y","Week 2",2,15,19783,"WEEK 2",4,"","Bilirubin (umol/L)","BILI",3,"CHEM",10.26,8.55,3,21,3.4,0.5,2.8,0.4,"","",null,"R2A1HI > 1.5","N",0],
[376,"CDISCPILOT01","1130","01-701-1130","Placebo",0,"Placebo",0,19769,19951,84,">80",3,"WHITE",1,"M","Y","","Y","Week 2",2,null,null,"",null,"DERIVED","Bilirubin 1.5 x ULN","BILIHY",4,"HYLAW",0,0,null,null,null,null,null,null,"","Normal to Normal",1,"","",null],
[377,"CDISCPILOT01","1130","01-701-1130","Placebo",0,"Placebo",0,19769,19951,84,">80",3,"WHITE",1,"M","Y","","Y","Week 2",2,null,null,"",null,"DERIVED","Transaminase 1.5 x ULN","TRANSHY",5,"HYLAW",0,0,null,null,null,null,null,null,"","Normal to Normal",1,"","",null],
[378,"CDISCPILOT01","1130","01-701-1130","Placebo",0,"Placebo",0,19769,19951,84,">80",3,"WHITE",1,"M","Y","","Y","Week 2",2,null,null,"",null,"DERIVED","Total Bili 1.5 x ULN and Transaminase 1.5 x ULN","HYLAW",6,"HYLAW",0,0,null,null,null,null,null,null,"","Normal to Normal",1,"","",null],
[379,"CDISCPILOT01","1130","01-701-1130","Placebo",0,"Placebo",0,19769,19951,84,">80",3,"WHITE",1,"M","Y","","Y","Week 4",4,29,19797,"WEEK 4",5,"","Alanine Aminotransferase (U/L)","ALT",1,"CHEM",18,15,6,35,3,0.5,2.5,0.4,"","",null,"R2A1HI > 1.5","N",0],
[380,"CDISCPILOT01","1130","01-701-1130","Placebo",0,"Placebo",0,19769,19951,84,">80",3,"WHITE",1,"M","Y","","Y","Week 4",4,29,19797,"WEEK 4",5,"","Aspartate Aminotransferase (U/L)","AST",2,"CHEM",25,24,11,36,2.3,0.7,2.2,0.7,"","",null,"R2A1HI > 1.5","N",0],
[381,"CDISCPILOT01","1130","01-701-1130","Placebo",0,"Placebo",0,19769,19951,84,">80",3,"WHITE",1,"M","Y","","Y","Week 4",4,29,19797,"WEEK 4",5,"","Bilirubin (umol/L)","BILI",3,"CHEM",5.13,8.55,3,21,1.7,0.2,2.8,0.4,"","",null,"R2A1HI > 1.5","N",0],
[382,"CDISCPILOT01","1130","01-701-1130","Placebo",0,"Placebo",0,19769,19951,84,">80",3,"WHITE",1,"M","Y","","Y","Week 4",4,null,null,"",null,"DERIVED","Bilirubin 1.5 x ULN","BILIHY",4,"HYLAW",0,0,null,null,null,null,null,null,"","Normal to Normal",1,"","",null],
[383,"CDISCPILOT01","1130","01-701-1130","Placebo",0,"Placebo",0,19769,19951,84,">80",3,"WHITE",1,"M","Y","","Y","Week 4",4,null,null,"",null,"DERIVED","Transaminase 1.5 x ULN","TRANSHY",5,"HYLAW",0,0,null,null,null,null,null,null,"","Normal to Normal",1,"","",null],
[384,"CDISCPILOT01","1130","01-701-1130","Placebo",0,"Placebo",0,19769,19951,84,">80",3,"WHITE",1,"M","Y","","Y","Week 4",4,null,null,"",null,"DERIVED","Total Bili 1.5 x ULN and Transaminase 1.5 x ULN","HYLAW",6,"HYLAW",0,0,null,null,null,null,null,null,"","Normal to Normal",1,"","",null],
[385,"CDISCPILOT01","1130","01-701-1130","Placebo",0,"Placebo",0,19769,19951,84,">80",3,"WHITE",1,"M","Y","","Y","Week 6",6,43,19811,"WEEK 6",7,"","Alanine Aminotransferase (U/L)","ALT",1,"CHEM",13,15,6,35,2.2,0.4,2.5,0.4,"","",null,"R2A1HI > 1.5","N",0],
[386,"CDISCPILOT01","1130","01-701-1130","Placebo",0,"Placebo",0,19769,19951,84,">80",3,"WHITE",1,"M","Y","","Y","Week 6",6,43,19811,"WEEK 6",7,"","Aspartate Aminotransferase (U/L)","AST",2,"CHEM",19,24,11,36,1.7,0.5,2.2,0.7,"","",null,"R2A1HI > 1.5","N",0],
[387,"CDISCPILOT01","1130","01-701-1130","Placebo",0,"Placebo",0,19769,19951,84,">80",3,"WHITE",1,"M","Y","","Y","Week 6",6,43,19811,"WEEK 6",7,"","Bilirubin (umol/L)","BILI",3,"CHEM",6.84,8.55,3,21,2.3,0.3,2.8,0.4,"","",null,"R2A1HI > 1.5","N",0],
[388,"CDISCPILOT01","1130","01-701-1130","Placebo",0,"Placebo",0,19769,19951,84,">80",3,"WHITE",1,"M","Y","","Y","Week 6",6,null,null,"",null,"DERIVED","Bilirubin 1.5 x ULN","BILIHY",4,"HYLAW",0,0,null,null,null,null,null,null,"","Normal to Normal",1,"","",null],
[389,"CDISCPILOT01","1130","01-701-1130","Placebo",0,"Placebo",0,19769,19951,84,">80",3,"WHITE",1,"M","Y","","Y","Week 6",6,null,null,"",null,"DERIVED","Transaminase 1.5 x ULN","TRANSHY",5,"HYLAW",0,0,null,null,null,null,null,null,"","Normal to Normal",1,"","",null],
[390,"CDISCPILOT01","1130","01-701-1130","Placebo",0,"Placebo",0,19769,19951,84,">80",3,"WHITE",1,"M","Y","","Y","Week 6",6,null,null,"",null,"DERIVED","Total Bili 1.5 x ULN and Transaminase 1.5 x ULN","HYLAW",6,"HYLAW",0,0,null,null,null,null,null,null,"","Normal to Normal",1,"","",null],
[391,"CDISCPILOT01","1130","01-701-1130","Placebo",0,"Placebo",0,19769,19951,84,">80",3,"WHITE",1,"M","Y","","Y","Week 8",8,57,19825,"WEEK 8",8,"","Alanine Aminotransferase (U/L)","ALT",1,"CHEM",10,15,6,35,1.7,0.3,2.5,0.4,"","",null,"R2A1HI > 1.5","N",0],
[392,"CDISCPILOT01","1130","01-701-1130","Placebo",0,"Placebo",0,19769,19951,84,">80",3,"WHITE",1,"M","Y","","Y","Week 8",8,57,19825,"WEEK 8",8,"","Aspartate Aminotransferase (U/L)","AST",2,"CHEM",18,24,11,36,1.6,0.5,2.2,0.7,"","",null,"R2A1HI > 1.5","N",0],
[393,"CDISCPILOT01","1130","01-701-1130","Placebo",0,"Placebo",0,19769,19951,84,">80",3,"WHITE",1,"M","Y","","Y","Week 8",8,57,19825,"WEEK 8",8,"","Bilirubin (umol/L)","BILI",3,"CHEM",10.26,8.55,3,21,3.4,0.5,2.8,0.4,"","",null,"R2A1HI > 1.5","N",0],
[394,"CDISCPILOT01","1130","01-701-1130","Placebo",0,"Placebo",0,19769,19951,84,">80",3,"WHITE",1,"M","Y","","Y","Week 8",8,null,null,"",null,"DERIVED","Bilirubin 1.5 x ULN","BILIHY",4,"HYLAW",0,0,null,null,null,null,null,null,"","Normal to Normal",1,"","",null],
[395,"CDISCPILOT01","1130","01-701-1130","Placebo",0,"Placebo",0,19769,19951,84,">80",3,"WHITE",1,"M","Y","","Y","Week 8",8,null,null,"",null,"DERIVED","Transaminase 1.5 x ULN","TRANSHY",5,"HYLAW",0,0,null,null,null,null,null,null,"","Normal to Normal",1,"","",null],
[396,"CDISCPILOT01","1130","01-701-1130","Placebo",0,"Placebo",0,19769,19951,84,">80",3,"WHITE",1,"M","Y","","Y","Week 8",8,null,null,"",null,"DERIVED","Total Bili 1.5 x ULN and Transaminase 1.5 x ULN","HYLAW",6,"HYLAW",0,0,null,null,null,null,null,null,"","Normal to Normal",1,"","",null],
[397,"CDISCPILOT01","1130","01-701-1130","Placebo",0,"Placebo",0,19769,19951,84,">80",3,"WHITE",1,"M","Y","","Y","Week 12",12,91,19859,"WEEK 12",9,"","Alanine Aminotransferase (U/L)","ALT",1,"CHEM",13,15,6,35,2.2,0.4,2.5,0.4,"","",null,"R2A1HI > 1.5","N",0],
[398,"CDISCPILOT01","1130","01-701-1130","Placebo",0,"Placebo",0,19769,19951,84,">80",3,"WHITE",1,"M","Y","","Y","Week 12",12,91,19859,"WEEK 12",9,"","Aspartate Aminotransferase (U/L)","AST",2,"CHEM",21,24,11,36,1.9,0.6,2.2,0.7,"","",null,"R2A1HI > 1.5","N",0],
[399,"CDISCPILOT01","1130","01-701-1130","Placebo",0,"Placebo",0,19769,19951,84,">80",3,"WHITE",1,"M","Y","","Y","Week 12",12,91,19859,"WEEK 12",9,"","Bilirubin (umol/L)","BILI",3,"CHEM",8.55,8.55,3,21,2.8,0.4,2.8,0.4,"","",null,"R2A1HI > 1.5","N",0],
[400,"CDISCPILOT01","1130","01-701-1130","Placebo",0,"Placebo",0,19769,19951,84,">80",3,"WHITE",1,"M","Y","","Y","Week 12",12,null,null,"",null,"DERIVED","Bilirubin 1.5 x ULN","BILIHY",4,"HYLAW",0,0,null,null,null,null,null,null,"","Normal to Normal",1,"","",null],
[401,"CDISCPILOT01","1130","01-701-1130","Placebo",0,"Placebo",0,19769,19951,84,">80",3,"WHITE",1,"M","Y","","Y","Week 12",12,null,null,"",null,"DERIVED","Transaminase 1.5 x ULN","TRANSHY",5,"HYLAW",0,0,null,null,null,null,null,null,"","Normal to Normal",1,"","",null],
[402,"CDISCPILOT01","1130","01-701-1130","Placebo",0,"Placebo",0,19769,19951,84,">80",3,"WHITE",1,"M","Y","","Y","Week 12",12,null,null,"",null,"DERIVED","Total Bili 1.5 x ULN and Transaminase 1.5 x ULN","HYLAW",6,"HYLAW",0,0,null,null,null,null,null,null,"","Normal to Normal",1,"","",null],
[403,"CDISCPILOT01","1130","01-701-1130","Placebo",0,"Placebo",0,19769,19951,84,">80",3,"WHITE",1,"M","Y","","Y","Week 16",16,113,19881,"WEEK 16",10,"","Alanine Aminotransferase (U/L)","ALT",1,"CHEM",12,15,6,35,2,0.3,2.5,0.4,"","",null,"R2A1HI > 1.5","N",0],
[404,"CDISCPILOT01","1130","01-701-1130","Placebo",0,"Placebo",0,19769,19951,84,">80",3,"WHITE",1,"M","Y","","Y","Week 16",16,113,19881,"WEEK 16",10,"","Aspartate Aminotransferase (U/L)","AST",2,"CHEM",19,24,11,36,1.7,0.5,2.2,0.7,"","",null,"R2A1HI > 1.5","N",0],
[405,"CDISCPILOT01","1130","01-701-1130","Placebo",0,"Placebo",0,19769,19951,84,">80",3,"WHITE",1,"M","Y","","Y","Week 16",16,113,19881,"WEEK 16",10,"","Bilirubin (umol/L)","BILI",3,"CHEM",10.26,8.55,3,21,3.4,0.5,2.8,0.4,"","",null,"R2A1HI > 1.5","N",0],
[406,"CDISCPILOT01","1130","01-701-1130","Placebo",0,"Placebo",0,19769,19951,84,">80",3,"WHITE",1,"M","Y","","Y","Week 16",16,null,null,"",null,"DERIVED","Bilirubin 1.5 x ULN","BILIHY",4,"HYLAW",0,0,null,null,null,null,null,null,"","Normal to Normal",1,"","",null],
[407,"CDISCPILOT01","1130","01-701-1130","Placebo",0,"Placebo",0,19769,19951,84,">80",3,"WHITE",1,"M","Y","","Y","Week 16",16,null,null,"",null,"DERIVED","Transaminase 1.5 x ULN","TRANSHY",5,"HYLAW",0,0,null,null,null,null,null,null,"","Normal to Normal",1,"","",null],
[408,"CDISCPILOT01","1130","01-701-1130","Placebo",0,"Placebo",0,19769,19951,84,">80",3,"WHITE",1,"M","Y","","Y","Week 16",16,null,null,"",null,"DERIVED","Total Bili 1.5 x ULN and Transaminase 1.5 x ULN","HYLAW",6,"HYLAW",0,0,null,null,null,null,null,null,"","Normal to Normal",1,"","",null],
[409,"CDISCPILOT01","1130","01-701-1130","Placebo",0,"Placebo",0,19769,19951,84,">80",3,"WHITE",1,"M","Y","","Y","Week 20",20,138,19906,"WEEK 20",11,"","Alanine Aminotransferase (U/L)","ALT",1,"CHEM",11,15,6,35,1.8,0.3,2.5,0.4,"","",null,"R2A1HI > 1.5","N",0],
[410,"CDISCPILOT01","1130","01-701-1130","Placebo",0,"Placebo",0,19769,19951,84,">80",3,"WHITE",1,"M","Y","","Y","Week 20",20,138,19906,"WEEK 20",11,"","Aspartate Aminotransferase (U/L)","AST",2,"CHEM",19,24,11,36,1.7,0.5,2.2,0.7,"","",null,"R2A1HI > 1.5","N",0],
[411,"CDISCPILOT01","1130","01-701-1130","Placebo",0,"Placebo",0,19769,19951,84,">80",3,"WHITE",1,"M","Y","","Y","Week 20",20,138,19906,"WEEK 20",11,"","Bilirubin (umol/L)","BILI",3,"CHEM",6.84,8.55,3,21,2.3,0.3,2.8,0.4,"","",null,"R2A1HI > 1.5","N",0],
[412,"CDISCPILOT01","1130","01-701-1130","Placebo",0,"Placebo",0,19769,19951,84,">80",3,"WHITE",1,"M","Y","","Y","Week 20",20,null,null,"",null,"DERIVED","Bilirubin 1.5 x ULN","BILIHY",4,"HYLAW",0,0,null,null,null,null,null,null,"","Normal to Normal",1,"","",null],
[413,"CDISCPILOT01","1130","01-701-1130","Placebo",0,"Placebo",0,19769,19951,84,">80",3,"WHITE",1,"M","Y","","Y","Week 20",20,null,null,"",null,"DERIVED","Transaminase 1.5 x ULN","TRANSHY",5,"HYLAW",0,0,null,null,null,null,null,null,"","Normal to Normal",1,"","",null],
[414,"CDISCPILOT01","1130","01-701-1130","Placebo",0,"Placebo",0,19769,19951,84,">80",3,"WHITE",1,"M","Y","","Y","Week 20",20,null,null,"",null,"DERIVED","Total Bili 1.5 x ULN and Transaminase 1.5 x ULN","HYLAW",6,"HYLAW",0,0,null,null,null,null,null,null,"","Normal to Normal",1,"","",null],
[415,"CDISCPILOT01","1130","01-701-1130","Placebo",0,"Placebo",0,19769,19951,84,">80",3,"WHITE",1,"M","Y","","Y","Week 24",24,169,19937,"WEEK 24",12,"","Alanine Aminotransferase (U/L)","ALT",1,"CHEM",13,15,6,35,2.2,0.4,2.5,0.4,"","",null,"R2A1HI > 1.5","N",0],
[416,"CDISCPILOT01","1130","01-701-1130","Placebo",0,"Placebo",0,19769,19951,84,">80",3,"WHITE",1,"M","Y","","Y","Week 24",24,169,19937,"WEEK 24",12,"","Aspartate Aminotransferase (U/L)","AST",2,"CHEM",22,24,11,36,2,0.6,2.2,0.7,"","",null,"R2A1HI > 1.5","N",0],
[417,"CDISCPILOT01","1130","01-701-1130","Placebo",0,"Placebo",0,19769,19951,84,">80",3,"WHITE",1,"M","Y","","Y","Week 24",24,169,19937,"WEEK 24",12,"","Bilirubin (umol/L)","BILI",3,"CHEM",11.97,8.55,3,21,4,0.6,2.8,0.4,"","",null,"R2A1HI > 1.5","N",0],
[418,"CDISCPILOT01","1130","01-701-1130","Placebo",0,"Placebo",0,19769,19951,84,">80",3,"WHITE",1,"M","Y","","Y","Week 24",24,null,null,"",null,"DERIVED","Bilirubin 1.5 x ULN","BILIHY",4,"HYLAW",0,0,null,null,null,null,null,null,"","Normal to Normal",1,"","",null],
[419,"CDISCPILOT01","1130","01-701-1130","Placebo",0,"Placebo",0,19769,19951,84,">80",3,"WHITE",1,"M","Y","","Y","Week 24",24,null,null,"",null,"DERIVED","Transaminase 1.5 x ULN","TRANSHY",5,"HYLAW",0,0,null,null,null,null,null,null,"","Normal to Normal",1,"","",null],
[420,"CDISCPILOT01","1130","01-701-1130","Placebo",0,"Placebo",0,19769,19951,84,">80",3,"WHITE",1,"M","Y","","Y","Week 24",24,null,null,"",null,"DERIVED","Total Bili 1.5 x ULN and Transaminase 1.5 x ULN","HYLAW",6,"HYLAW",0,0,null,null,null,null,null,null,"","Normal to Normal",1,"","",null],
[421,"CDISCPILOT01","1133","01-701-1133","Xanomeline High Dose",81,"Xanomeline High Dose",81,19294,19476,81,">80",3,"WHITE",1,"F","Y","","Y","Baseline",0,-5,19289,"SCREENING 1",1,"","Alanine Aminotransferase (U/L)","ALT",1,"CHEM",23,23,6,32,3.8,0.7,3.8,0.7,"Y","",null,"R2A1HI > 1.5","N",0],
[422,"CDISCPILOT01","1133","01-701-1133","Xanomeline High Dose",81,"Xanomeline High Dose",81,19294,19476,81,">80",3,"WHITE",1,"F","Y","","Y","Baseline",0,-5,19289,"SCREENING 1",1,"","Aspartate Aminotransferase (U/L)","AST",2,"CHEM",27,27,9,34,3,0.8,3,0.8,"Y","",null,"R2A1HI > 1.5","N",0],
[423,"CDISCPILOT01","1133","01-701-1133","Xanomeline High Dose",81,"Xanomeline High Dose",81,19294,19476,81,">80",3,"WHITE",1,"F","Y","","Y","Baseline",0,-5,19289,"SCREENING 1",1,"","Bilirubin (umol/L)","BILI",3,"CHEM",15.39,15.39,3,21,5.1,0.7,5.1,0.7,"Y","",null,"R2A1HI > 1.5","N",0],
[424,"CDISCPILOT01","1133","01-701-1133","Xanomeline High Dose",81,"Xanomeline High Dose",81,19294,19476,81,">80",3,"WHITE",1,"F","Y","","Y","Baseline",0,null,null,"",null,"DERIVED","Bilirubin 1.5 x ULN","BILIHY",4,"HYLAW",0,0,null,null,null,null,null,null,"Y","Normal to Normal",1,"","",null],
[425,"CDISCPILOT01","1133","01-701-1133","Xanomeline High Dose",81,"Xanomeline High Dose",81,19294,19476,81,">80",3,"WHITE",1,"F","Y","","Y","Baseline",0,null,null,"",null,"DERIVED","Transaminase 1.5 x ULN","TRANSHY",5,"HYLAW",0,0,null,null,null,null,null,null,"Y","Normal to Normal",1,"","",null],
[426,"CDISCPILOT01","1133","01-701-1133","Xanomeline High Dose",81,"Xanomeline High Dose",81,19294,19476,81,">80",3,"WHITE",1,"F","Y","","Y","Baseline",0,null,null,"",null,"DERIVED","Total Bili 1.5 x ULN and Transaminase 1.5 x ULN","HYLAW",6,"HYLAW",0,0,null,null,null,null,null,null,"Y","Normal to Normal",1,"","",null],
[427,"CDISCPILOT01","1133","01-701-1133","Xanomeline High Dose",81,"Xanomeline High Dose",81,19294,19476,81,">80",3,"WHITE",1,"F","Y","","Y","Week 4",4,30,19323,"WEEK 4",5,"","Alanine Aminotransferase (U/L)","ALT",1,"CHEM",21,23,6,32,3.5,0.7,3.8,0.7,"","",null,"R2A1HI > 1.5","N",0],
[428,"CDISCPILOT01","1133","01-701-1133","Xanomeline High Dose",81,"Xanomeline High Dose",81,19294,19476,81,">80",3,"WHITE",1,"F","Y","","Y","Week 4",4,30,19323,"WEEK 4",5,"","Aspartate Aminotransferase (U/L)","AST",2,"CHEM",20,27,9,34,2.2,0.6,3,0.8,"","",null,"R2A1HI > 1.5","N",0],
[429,"CDISCPILOT01","1133","01-701-1133","Xanomeline High Dose",81,"Xanomeline High Dose",81,19294,19476,81,">80",3,"WHITE",1,"F","Y","","Y","Week 4",4,30,19323,"WEEK 4",5,"","Bilirubin (umol/L)","BILI",3,"CHEM",10.26,15.39,3,21,3.4,0.5,5.1,0.7,"","",null,"R2A1HI > 1.5","N",0],
[430,"CDISCPILOT01","1133","01-701-1133","Xanomeline High Dose",81,"Xanomeline High Dose",81,19294,19476,81,">80",3,"WHITE",1,"F","Y","","Y","Week 4",4,null,null,"",null,"DERIVED","Bilirubin 1.5 x ULN","BILIHY",4,"HYLAW",0,0,null,null,null,null,null,null,"","Normal to Normal",1,"","",null],
[431,"CDISCPILOT01","1133","01-701-1133","Xanomeline High Dose",81,"Xanomeline High Dose",81,19294,19476,81,">80",3,"WHITE",1,"F","Y","","Y","Week 4",4,null,null,"",null,"DERIVED","Transaminase 1.5 x ULN","TRANSHY",5,"HYLAW",0,0,null,null,null,null,null,null,"","Normal to Normal",1,"","",null],
[432,"CDISCPILOT01","1133","01-701-1133","Xanomeline High Dose",81,"Xanomeline High Dose",81,19294,19476,81,">80",3,"WHITE",1,"F","Y","","Y","Week 4",4,null,null,"",null,"DERIVED","Total Bili 1.5 x ULN and Transaminase 1.5 x ULN","HYLAW",6,"HYLAW",0,0,null,null,null,null,null,null,"","Normal to Normal",1,"","",null],
[433,"CDISCPILOT01","1133","01-701-1133","Xanomeline High Dose",81,"Xanomeline High Dose",81,19294,19476,81,">80",3,"WHITE",1,"F","Y","","Y","Week 6",6,45,19338,"WEEK 6",7,"","Alanine Aminotransferase (U/L)","ALT",1,"CHEM",15,23,6,32,2.5,0.5,3.8,0.7,"","",null,"R2A1HI > 1.5","N",0],
[434,"CDISCPILOT01","1133","01-701-1133","Xanomeline High Dose",81,"Xanomeline High Dose",81,19294,19476,81,">80",3,"WHITE",1,"F","Y","","Y","Week 6",6,45,19338,"WEEK 6",7,"","Aspartate Aminotransferase (U/L)","AST",2,"CHEM",20,27,9,34,2.2,0.6,3,0.8,"","",null,"R2A1HI > 1.5","N",0],
[435,"CDISCPILOT01","1133","01-701-1133","Xanomeline High Dose",81,"Xanomeline High Dose",81,19294,19476,81,">80",3,"WHITE",1,"F","Y","","Y","Week 6",6,45,19338,"WEEK 6",7,"","Bilirubin (umol/L)","BILI",3,"CHEM",11.97,15.39,3,21,4,0.6,5.1,0.7,"","",null,"R2A1HI > 1.5","N",0],
[436,"CDISCPILOT01","1133","01-701-1133","Xanomeline High Dose",81,"Xanomeline High Dose",81,19294,19476,81,">80",3,"WHITE",1,"F","Y","","Y","Week 6",6,null,null,"",null,"DERIVED","Bilirubin 1.5 x ULN","BILIHY",4,"HYLAW",0,0,null,null,null,null,null,null,"","Normal to Normal",1,"","",null],
[437,"CDISCPILOT01","1133","01-701-1133","Xanomeline High Dose",81,"Xanomeline High Dose",81,19294,19476,81,">80",3,"WHITE",1,"F","Y","","Y","Week 6",6,null,null,"",null,"DERIVED","Transaminase 1.5 x ULN","TRANSHY",5,"HYLAW",0,0,null,null,null,null,null,null,"","Normal to Normal",1,"","",null],
[438,"CDISCPILOT01","1133","01-701-1133","Xanomeline High Dose",81,"Xanomeline High Dose",81,19294,19476,81,">80",3,"WHITE",1,"F","Y","","Y","Week 6",6,null,null,"",null,"DERIVED","Total Bili 1.5 x ULN and Transaminase 1.5 x ULN","HYLAW",6,"HYLAW",0,0,null,null,null,null,null,null,"","Normal to Normal",1,"","",null],
[439,"CDISCPILOT01","1133","01-701-1133","Xanomeline High Dose",81,"Xanomeline High Dose",81,19294,19476,81,">80",3,"WHITE",1,"F","Y","","Y","Week 8",8,58,19351,"WEEK 8",8,"","Alanine Aminotransferase (U/L)","ALT",1,"CHEM",16,23,6,32,2.7,0.5,3.8,0.7,"","",null,"R2A1HI > 1.5","N",0],
[440,"CDISCPILOT01","1133","01-701-1133","Xanomeline High Dose",81,"Xanomeline High Dose",81,19294,19476,81,">80",3,"WHITE",1,"F","Y","","Y","Week 8",8,58,19351,"WEEK 8",8,"","Aspartate Aminotransferase (U/L)","AST",2,"CHEM",19,27,9,34,2.1,0.6,3,0.8,"","",null,"R2A1HI > 1.5","N",0],
[441,"CDISCPILOT01","1133","01-701-1133","Xanomeline High Dose",81,"Xanomeline High Dose",81,19294,19476,81,">80",3,"WHITE",1,"F","Y","","Y","Week 8",8,58,19351,"WEEK 8",8,"","Bilirubin (umol/L)","BILI",3,"CHEM",10.26,15.39,3,21,3.4,0.5,5.1,0.7,"","",null,"R2A1HI > 1.5","N",0],
[442,"CDISCPILOT01","1133","01-701-1133","Xanomeline High Dose",81,"Xanomeline High Dose",81,19294,19476,81,">80",3,"WHITE",1,"F","Y","","Y","Week 8",8,null,null,"",null,"DERIVED","Bilirubin 1.5 x ULN","BILIHY",4,"HYLAW",0,0,null,null,null,null,null,null,"","Normal to Normal",1,"","",null],
[443,"CDISCPILOT01","1133","01-701-1133","Xanomeline High Dose",81,"Xanomeline High Dose",81,19294,19476,81,">80",3,"WHITE",1,"F","Y","","Y","Week 8",8,null,null,"",null,"DERIVED","Transaminase 1.5 x ULN","TRANSHY",5,"HYLAW",0,0,null,null,null,null,null,null,"","Normal to Normal",1,"","",null],
[444,"CDISCPILOT01","1133","01-701-1133","Xanomeline High Dose",81,"Xanomeline High Dose",81,19294,19476,81,">80",3,"WHITE",1,"F","Y","","Y","Week 8",8,null,null,"",null,"DERIVED","Total Bili 1.5 x ULN and Transaminase 1.5 x ULN","HYLAW",6,"HYLAW",0,0,null,null,null,null,null,null,"","Normal to Normal",1,"","",null],
[445,"CDISCPILOT01","1133","01-701-1133","Xanomeline High Dose",81,"Xanomeline High Dose",81,19294,19476,81,">80",3,"WHITE",1,"F","Y","","Y","Week 12",12,87,19380,"WEEK 12",9,"","Alanine Aminotransferase (U/L)","ALT",1,"CHEM",16,23,6,32,2.7,0.5,3.8,0.7,"","",null,"R2A1HI > 1.5","N",0],
[446,"CDISCPILOT01","1133","01-701-1133","Xanomeline High Dose",81,"Xanomeline High Dose",81,19294,19476,81,">80",3,"WHITE",1,"F","Y","","Y","Week 12",12,87,19380,"WEEK 12",9,"","Aspartate Aminotransferase (U/L)","AST",2,"CHEM",19,27,9,34,2.1,0.6,3,0.8,"","",null,"R2A1HI > 1.5","N",0],
[447,"CDISCPILOT01","1133","01-701-1133","Xanomeline High Dose",81,"Xanomeline High Dose",81,19294,19476,81,">80",3,"WHITE",1,"F","Y","","Y","Week 12",12,87,19380,"WEEK 12",9,"","Bilirubin (umol/L)","BILI",3,"CHEM",10.26,15.39,3,21,3.4,0.5,5.1,0.7,"","",null,"R2A1HI > 1.5","N",0],
[448,"CDISCPILOT01","1133","01-701-1133","Xanomeline High Dose",81,"Xanomeline High Dose",81,19294,19476,81,">80",3,"WHITE",1,"F","Y","","Y","Week 12",12,null,null,"",null,"DERIVED","Bilirubin 1.5 x ULN","BILIHY",4,"HYLAW",0,0,null,null,null,null,null,null,"","Normal to Normal",1,"","",null],
[449,"CDISCPILOT01","1133","01-701-1133","Xanomeline High Dose",81,"Xanomeline High Dose",81,19294,19476,81,">80",3,"WHITE",1,"F","Y","","Y","Week 12",12,null,null,"",null,"DERIVED","Transaminase 1.5 x ULN","TRANSHY",5,"HYLAW",0,0,null,null,null,null,null,null,"","Normal to Normal",1,"","",null],
[450,"CDISCPILOT01","1133","01-701-1133","Xanomeline High Dose",81,"Xanomeline High Dose",81,19294,19476,81,">80",3,"WHITE",1,"F","Y","","Y","Week 12",12,null,null,"",null,"DERIVED","Total Bili 1.5 x ULN and Transaminase 1.5 x ULN","HYLAW",6,"HYLAW",0,0,null,null,null,null,null,null,"","Normal to Normal",1,"","",null],
[451,"CDISCPILOT01","1133","01-701-1133","Xanomeline High Dose",81,"Xanomeline High Dose",81,19294,19476,81,">80",3,"WHITE",1,"F","Y","","Y","Week 16",16,114,19407,"WEEK 16",10,"","Alanine Aminotransferase (U/L)","ALT",1,"CHEM",15,23,6,32,2.5,0.5,3.8,0.7,"","",null,"R2A1HI > 1.5","N",0],
[452,"CDISCPILOT01","1133","01-701-1133","Xanomeline High Dose",81,"Xanomeline High Dose",81,19294,19476,81,">80",3,"WHITE",1,"F","Y","","Y","Week 16",16,114,19407,"WEEK 16",10,"","Aspartate Aminotransferase (U/L)","AST",2,"CHEM",19,27,9,34,2.1,0.6,3,0.8,"","",null,"R2A1HI > 1.5","N",0],
[453,"CDISCPILOT01","1133","01-701-1133","Xanomeline High Dose",81,"Xanomeline High Dose",81,19294,19476,81,">80",3,"WHITE",1,"F","Y","","Y","Week 16",16,114,19407,"WEEK 16",10,"","Bilirubin (umol/L)","BILI",3,"CHEM",13.68,15.39,3,21,4.6,0.7,5.1,0.7,"","",null,"R2A1HI > 1.5","N",0],
[454,"CDISCPILOT01","1133","01-701-1133","Xanomeline High Dose",81,"Xanomeline High Dose",81,19294,19476,81,">80",3,"WHITE",1,"F","Y","","Y","Week 16",16,null,null,"",null,"DERIVED","Bilirubin 1.5 x ULN","BILIHY",4,"HYLAW",0,0,null,null,null,null,null,null,"","Normal to Normal",1,"","",null],
[455,"CDISCPILOT01","1133","01-701-1133","Xanomeline High Dose",81,"Xanomeline High Dose",81,19294,19476,81,">80",3,"WHITE",1,"F","Y","","Y","Week 16",16,null,null,"",null,"DERIVED","Transaminase 1.5 x ULN","TRANSHY",5,"HYLAW",0,0,null,null,null,null,null,null,"","Normal to Normal",1,"","",null],
[456,"CDISCPILOT01","1133","01-701-1133","Xanomeline High Dose",81,"Xanomeline High Dose",81,19294,19476,81,">80",3,"WHITE",1,"F","Y","","Y","Week 16",16,null,null,"",null,"DERIVED","Total Bili 1.5 x ULN and Transaminase 1.5 x ULN","HYLAW",6,"HYLAW",0,0,null,null,null,null,null,null,"","Normal to Normal",1,"","",null],
[457,"CDISCPILOT01","1133","01-701-1133","Xanomeline High Dose",81,"Xanomeline High Dose",81,19294,19476,81,">80",3,"WHITE",1,"F","Y","","Y","Week 20",20,142,19435,"WEEK 20",11,"","Alanine Aminotransferase (U/L)","ALT",1,"CHEM",19,23,6,32,3.2,0.6,3.8,0.7,"","",null,"R2A1HI > 1.5","N",0],
[458,"CDISCPILOT01","1133","01-701-1133","Xanomeline High Dose",81,"Xanomeline High Dose",81,19294,19476,81,">80",3,"WHITE",1,"F","Y","","Y","Week 20",20,142,19435,"WEEK 20",11,"","Aspartate Aminotransferase (U/L)","AST",2,"CHEM",21,27,9,34,2.3,0.6,3,0.8,"","",null,"R2A1HI > 1.5","N",0],
[459,"CDISCPILOT01","1133","01-701-1133","Xanomeline High Dose",81,"Xanomeline High Dose",81,19294,19476,81,">80",3,"WHITE",1,"F","Y","","Y","Week 20",20,142,19435,"WEEK 20",11,"","Bilirubin (umol/L)","BILI",3,"CHEM",10.26,15.39,3,21,3.4,0.5,5.1,0.7,"","",null,"R2A1HI > 1.5","N",0],
[460,"CDISCPILOT01","1133","01-701-1133","Xanomeline High Dose",81,"Xanomeline High Dose",81,19294,19476,81,">80",3,"WHITE",1,"F","Y","","Y","Week 20",20,null,null,"",null,"DERIVED","Bilirubin 1.5 x ULN","BILIHY",4,"HYLAW",0,0,null,null,null,null,null,null,"","Normal to Normal",1,"","",null],
[461,"CDISCPILOT01","1133","01-701-1133","Xanomeline High Dose",81,"Xanomeline High Dose",81,19294,19476,81,">80",3,"WHITE",1,"F","Y","","Y","Week 20",20,null,null,"",null,"DERIVED","Transaminase 1.5 x ULN","TRANSHY",5,"HYLAW",0,0,null,null,null,null,null,null,"","Normal to Normal",1,"","",null],
[462,"CDISCPILOT01","1133","01-701-1133","Xanomeline High Dose",81,"Xanomeline High Dose",81,19294,19476,81,">80",3,"WHITE",1,"F","Y","","Y","Week 20",20,null,null,"",null,"DERIVED","Total Bili 1.5 x ULN and Transaminase 1.5 x ULN","HYLAW",6,"HYLAW",0,0,null,null,null,null,null,null,"","Normal to Normal",1,"","",null],
[463,"CDISCPILOT01","1133","01-701-1133","Xanomeline High Dose",81,"Xanomeline High Dose",81,19294,19476,81,">80",3,"WHITE",1,"F","Y","","Y","Week 24",24,173,19466,"WEEK 24",12,"","Alanine Aminotransferase (U/L)","ALT",1,"CHEM",18,23,6,32,3,0.6,3.8,0.7,"","",null,"R2A1HI > 1.5","N",0],
[464,"CDISCPILOT01","1133","01-701-1133","Xanomeline High Dose",81,"Xanomeline High Dose",81,19294,19476,81,">80",3,"WHITE",1,"F","Y","","Y","Week 24",24,173,19466,"WEEK 24",12,"","Aspartate Aminotransferase (U/L)","AST",2,"CHEM",23,27,9,34,2.6,0.7,3,0.8,"","",null,"R2A1HI > 1.5","N",0],
[465,"CDISCPILOT01","1133","01-701-1133","Xanomeline High Dose",81,"Xanomeline High Dose",81,19294,19476,81,">80",3,"WHITE",1,"F","Y","","Y","Week 24",24,173,19466,"WEEK 24",12,"","Bilirubin (umol/L)","BILI",3,"CHEM",11.97,15.39,3,21,4,0.6,5.1,0.7,"","",null,"R2A1HI > 1.5","N",0],
[466,"CDISCPILOT01","1133","01-701-1133","Xanomeline High Dose",81,"Xanomeline High Dose",81,19294,19476,81,">80",3,"WHITE",1,"F","Y","","Y","Week 24",24,null,null,"",null,"DERIVED","Bilirubin 1.5 x ULN","BILIHY",4,"HYLAW",0,0,null,null,null,null,null,null,"","Normal to Normal",1,"","",null],
[467,"CDISCPILOT01","1133","01-701-1133","Xanomeline High Dose",81,"Xanomeline High Dose",81,19294,19476,81,">80",3,"WHITE",1,"F","Y","","Y","Week 24",24,null,null,"",null,"DERIVED","Transaminase 1.5 x ULN","TRANSHY",5,"HYLAW",0,0,null,null,null,null,null,null,"","Normal to Normal",1,"","",null],
[468,"CDISCPILOT01","1133","01-701-1133","Xanomeline High Dose",81,"Xanomeline High Dose",81,19294,19476,81,">80",3,"WHITE",1,"F","Y","","Y","Week 24",24,null,null,"",null,"DERIVED","Total Bili 1.5 x ULN and Transaminase 1.5 x ULN","HYLAW",6,"HYLAW",0,0,null,null,null,null,null,null,"","Normal to Normal",1,"","",null],
[469,"CDISCPILOT01","1146","01-701-1146","Xanomeline High Dose",81,"Xanomeline High Dose",81,19498,19535,75,"65-80",2,"WHITE",1,"F","N","Y","Y","Baseline",0,-13,19485,"SCREENING 1",1,"","Alanine Aminotransferase (U/L)","ALT",1,"CHEM",15,15,6,32,2.5,0.5,2.5,0.5,"Y","",null,"R2A1HI > 1.5","N",0],
[470,"CDISCPILOT01","1146","01-701-1146","Xanomeline High Dose",81,"Xanomeline High Dose",81,19498,19535,75,"65-80",2,"WHITE",1,"F","N","Y","Y","Baseline",0,-13,19485,"SCREENING 1",1,"","Aspartate Aminotransferase (U/L)","AST",2,"CHEM",14,14,9,34,1.6,0.4,1.6,0.4,"Y","",null,"R2A1HI > 1.5","N",0],
[471,"CDISCPILOT01","1146","01-701-1146","Xanomeline High Dose",81,"Xanomeline High Dose",81,19498,19535,75,"65-80",2,"WHITE",1,"F","N","Y","Y","Baseline",0,-13,19485,"SCREENING 1",1,"","Bilirubin (umol/L)","BILI",3,"CHEM",5.13,5.13,3,21,1.7,0.2,1.7,0.2,"Y","",null,"R2A1HI > 1.5","N",0],
[472,"CDISCPILOT01","1146","01-701-1146","Xanomeline High Dose",81,"Xanomeline High Dose",81,19498,19535,75,"65-80",2,"WHITE",1,"F","N","Y","Y","Baseline",0,null,null,"",null,"DERIVED","Bilirubin 1.5 x ULN","BILIHY",4,"HYLAW",0,0,null,null,null,null,null,null,"Y","Normal to Normal",1,"","",null],
[473,"CDISCPILOT01","1146","01-701-1146","Xanomeline High Dose",81,"Xanomeline High Dose",81,19498,19535,75,"65-80",2,"WHITE",1,"F","N","Y","Y","Baseline",0,null,null,"",null,"DERIVED","Transaminase 1.5 x ULN","TRANSHY",5,"HYLAW",0,0,null,null,null,null,null,null,"Y","Normal to Normal",1,"","",null],
[474,"CDISCPILOT01","1146","01-701-1146","Xanomeline High Dose",81,"Xanomeline High Dose",81,19498,19535,75,"65-80",2,"WHITE",1,"F","N","Y","Y","Baseline",0,null,null,"",null,"DERIVED","Total Bili 1.5 x ULN and Transaminase 1.5 x ULN","HYLAW",6,"HYLAW",0,0,null,null,null,null,null,null,"Y","Normal to Normal",1,"","",null],
[475,"CDISCPILOT01","1146","01-701-1146","Xanomeline High Dose",81,"Xanomeline High Dose",81,19498,19535,75,"65-80",2,"WHITE",1,"F","N","Y","Y","Week 2",2,15,19512,"WEEK 2",4,"","Alanine Aminotransferase (U/L)","ALT",1,"CHEM",14,15,6,32,2.3,0.4,2.5,0.5,"","",null,"R2A1HI > 1.5","N",0],
[476,"CDISCPILOT01","1146","01-701-1146","Xanomeline High Dose",81,"Xanomeline High Dose",81,19498,19535,75,"65-80",2,"WHITE",1,"F","N","Y","Y","Week 2",2,15,19512,"WEEK 2",4,"","Aspartate Aminotransferase (U/L)","AST",2,"CHEM",20,14,9,34,2.2,0.6,1.6,0.4,"","",null,"R2A1HI > 1.5","N",0],
[477,"CDISCPILOT01","1146","01-701-1146","Xanomeline High Dose",81,"Xanomeline High Dose",81,19498,19535,75,"65-80",2,"WHITE",1,"F","N","Y","Y","Week 2",2,15,19512,"WEEK 2",4,"","Bilirubin (umol/L)","BILI",3,"CHEM",6.84,5.13,3,21,2.3,0.3,1.7,0.2,"","",null,"R2A1HI > 1.5","N",0],
[478,"CDISCPILOT01","1146","01-701-1146","Xanomeline High Dose",81,"Xanomeline High Dose",81,19498,19535,75,"65-80",2,"WHITE",1,"F","N","Y","Y","Week 2",2,null,null,"",null,"DERIVED","Bilirubin 1.5 x ULN","BILIHY",4,"HYLAW",0,0,null,null,null,null,null,null,"","Normal to Normal",1,"","",null],
[479,"CDISCPILOT01","1146","01-701-1146","Xanomeline High Dose",81,"Xanomeline High Dose",81,19498,19535,75,"65-80",2,"WHITE",1,"F","N","Y","Y","Week 2",2,null,null,"",null,"DERIVED","Transaminase 1.5 x ULN","TRANSHY",5,"HYLAW",0,0,null,null,null,null,null,null,"","Normal to Normal",1,"","",null],
[480,"CDISCPILOT01","1146","01-701-1146","Xanomeline High Dose",81,"Xanomeline High Dose",81,19498,19535,75,"65-80",2,"WHITE",1,"F","N","Y","Y","Week 2",2,null,null,"",null,"DERIVED","Total Bili 1.5 x ULN and Transaminase 1.5 x ULN","HYLAW",6,"HYLAW",0,0,null,null,null,null,null,null,"","Normal to Normal",1,"","",null],
[481,"CDISCPILOT01","1146","01-701-1146","Xanomeline High Dose",81,"Xanomeline High Dose",81,19498,19535,75,"65-80",2,"WHITE",1,"F","N","Y","Y","Week 4",4,28,19525,"WEEK 4",5,"","Alanine Aminotransferase (U/L)","ALT",1,"CHEM",16,15,6,32,2.7,0.5,2.5,0.5,"","",null,"R2A1HI > 1.5","N",0],
[482,"CDISCPILOT01","1146","01-701-1146","Xanomeline High Dose",81,"Xanomeline High Dose",81,19498,19535,75,"65-80",2,"WHITE",1,"F","N","Y","Y","Week 4",4,28,19525,"WEEK 4",5,"","Aspartate Aminotransferase (U/L)","AST",2,"CHEM",19,14,9,34,2.1,0.6,1.6,0.4,"","",null,"R2A1HI > 1.5","N",0],
[483,"CDISCPILOT01","1146","01-701-1146","Xanomeline High Dose",81,"Xanomeline High Dose",81,19498,19535,75,"65-80",2,"WHITE",1,"F","N","Y","Y","Week 4",4,28,19525,"WEEK 4",5,"","Bilirubin (umol/L)","BILI",3,"CHEM",5.13,5.13,3,21,1.7,0.2,1.7,0.2,"","",null,"R2A1HI > 1.5","N",0],
[484,"CDISCPILOT01","1146","01-701-1146","Xanomeline High Dose",81,"Xanomeline High Dose",81,19498,19535,75,"65-80",2,"WHITE",1,"F","N","Y","Y","Week 4",4,null,null,"",null,"DERIVED","Bilirubin 1.5 x ULN","BILIHY",4,"HYLAW",0,0,null,null,null,null,null,null,"","Normal to Normal",1,"","",null],
[485,"CDISCPILOT01","1146","01-701-1146","Xanomeline High Dose",81,"Xanomeline High Dose",81,19498,19535,75,"65-80",2,"WHITE",1,"F","N","Y","Y","Week 4",4,null,null,"",null,"DERIVED","Transaminase 1.5 x ULN","TRANSHY",5,"HYLAW",0,0,null,null,null,null,null,null,"","Normal to Normal",1,"","",null],
[486,"CDISCPILOT01","1146","01-701-1146","Xanomeline High Dose",81,"Xanomeline High Dose",81,19498,19535,75,"65-80",2,"WHITE",1,"F","N","Y","Y","Week 4",4,null,null,"",null,"DERIVED","Total Bili 1.5 x ULN and Transaminase 1.5 x ULN","HYLAW",6,"HYLAW",0,0,null,null,null,null,null,null,"","Normal to Normal",1,"","",null],
[487,"CDISCPILOT01","1146","01-701-1146","Xanomeline High Dose",81,"Xanomeline High Dose",81,19498,19535,75,"65-80",2,"WHITE",1,"F","N","Y","Y","Week 6",6,42,19539,"WEEK 6",7,"","Alanine Aminotransferase (U/L)","ALT",1,"CHEM",13,15,6,32,2.2,0.4,2.5,0.5,"","",null,"R2A1HI > 1.5","N",0],
[488,"CDISCPILOT01","1146","01-701-1146","Xanomeline High Dose",81,"Xanomeline High Dose",81,19498,19535,75,"65-80",2,"WHITE",1,"F","N","Y","Y","Week 6",6,42,19539,"WEEK 6",7,"","Aspartate Aminotransferase (U/L)","AST",2,"CHEM",20,14,9,34,2.2,0.6,1.6,0.4,"","",null,"R2A1HI > 1.5","N",0],
[489,"CDISCPILOT01","1146","01-701-1146","Xanomeline High Dose",81,"Xanomeline High Dose",81,19498,19535,75,"65-80",2,"WHITE",1,"F","N","Y","Y","Week 6",6,42,19539,"WEEK 6",7,"","Bilirubin (umol/L)","BILI",3,"CHEM",10.26,5.13,3,21,3.4,0.5,1.7,0.2,"","",null,"R2A1HI > 1.5","N",0],
[490,"CDISCPILOT01","1146","01-701-1146","Xanomeline High Dose",81,"Xanomeline High Dose",81,19498,19535,75,"65-80",2,"WHITE",1,"F","N","Y","Y","Week 6",6,null,null,"",null,"DERIVED","Bilirubin 1.5 x ULN","BILIHY",4,"HYLAW",0,0,null,null,null,null,null,null,"","Normal to Normal",1,"","",null],
[491,"CDISCPILOT01","1146","01-701-1146","Xanomeline High Dose",81,"Xanomeline High Dose",81,19498,19535,75,"65-80",2,"WHITE",1,"F","N","Y","Y","Week 6",6,null,null,"",null,"DERIVED","Transaminase 1.5 x ULN","TRANSHY",5,"HYLAW",0,0,null,null,null,null,null,null,"","Normal to Normal",1,"","",null],
[492,"CDISCPILOT01","1146","01-701-1146","Xanomeline High Dose",81,"Xanomeline High Dose",81,19498,19535,75,"65-80",2,"WHITE",1,"F","N","Y","Y","Week 6",6,null,null,"",null,"DERIVED","Total Bili 1.5 x ULN and Transaminase 1.5 x ULN","HYLAW",6,"HYLAW",0,0,null,null,null,null,null,null,"","Normal to Normal",1,"","",null],
[493,"CDISCPILOT01","1148","01-701-1148","Xanomeline High Dose",81,"Xanomeline High Dose",81,19593,19774,57,"<65",1,"WHITE",1,"M","Y","","Y","Baseline",0,-9,19584,"SCREENING 1",1,"","Alanine Aminotransferase (U/L)","ALT",1,"CHEM",34,34,6,43,5.7,0.8,5.7,0.8,"Y","",null,"R2A1HI > 1.5","N",0],
[494,"CDISCPILOT01","1148","01-701-1148","Xanomeline High Dose",81,"Xanomeline High Dose",81,19593,19774,57,"<65",1,"WHITE",1,"M","Y","","Y","Baseline",0,-9,19584,"SCREENING 1",1,"","Aspartate Aminotransferase (U/L)","AST",2,"CHEM",25,25,11,36,2.3,0.7,2.3,0.7,"Y","",null,"R2A1HI > 1.5","N",0],
[495,"CDISCPILOT01","1148","01-701-1148","Xanomeline High Dose",81,"Xanomeline High Dose",81,19593,19774,57,"<65",1,"WHITE",1,"M","Y","","Y","Baseline",0,-9,19584,"SCREENING 1",1,"","Bilirubin (umol/L)","BILI",3,"CHEM",8.55,8.55,3,21,2.8,0.4,2.8,0.4,"Y","",null,"R2A1HI > 1.5","N",0],
[496,"CDISCPILOT01","1148","01-701-1148","Xanomeline High Dose",81,"Xanomeline High Dose",81,19593,19774,57,"<65",1,"WHITE",1,"M","Y","","Y","Baseline",0,null,null,"",null,"DERIVED","Bilirubin 1.5 x ULN","BILIHY",4,"HYLAW",0,0,null,null,null,null,null,null,"Y","Normal to Normal",1,"","",null],
[497,"CDISCPILOT01","1148","01-701-1148","Xanomeline High Dose",81,"Xanomeline High Dose",81,19593,19774,57,"<65",1,"WHITE",1,"M","Y","","Y","Baseline",0,null,null,"",null,"DERIVED","Transaminase 1.5 x ULN","TRANSHY",5,"HYLAW",0,0,null,null,null,null,null,null,"Y","Normal to Normal",1,"","",null],
[498,"CDISCPILOT01","1148","01-701-1148","Xanomeline High Dose",81,"Xanomeline High Dose",81,19593,19774,57,"<65",1,"WHITE",1,"M","Y","","Y","Baseline",0,null,null,"",null,"DERIVED","Total Bili 1.5 x ULN and Transaminase 1.5 x ULN","HYLAW",6,"HYLAW",0,0,null,null,null,null,null,null,"Y","Normal to Normal",1,"","",null],
[499,"CDISCPILOT01","1148","01-701-1148","Xanomeline High Dose",81,"Xanomeline High Dose",81,19593,19774,57,"<65",1,"WHITE",1,"M","Y","","Y","Week 2",2,14,19606,"WEEK 2",4,"","Alanine Aminotransferase (U/L)","ALT",1,"CHEM",41,34,6,43,6.8,1,5.7,0.8,"","",null,"R2A1HI > 1.5","N",0],
[500,"CDISCPILOT01","1148","01-701-1148","Xanomeline High Dose",81,"Xanomeline High Dose",81,19593,19774,57,"<65",1,"WHITE",1,"M","Y","","Y","Week 2",2,14,19606,"WEEK 2",4,"","Aspartate Aminotransferase (U/L)","AST",2,"CHEM",27,25,11,36,2.5,0.8,2.3,0.7,"","",null,"R2A1HI > 1.5","N",0],
[501,"CDISCPILOT01","1148","01-701-1148","Xanomeline High Dose",81,"Xanomeline High Dose",81,19593,19774,57,"<65",1,"WHITE",1,"M","Y","","Y","Week 2",2,14,19606,"WEEK 2",4,"","Bilirubin (umol/L)","BILI",3,"CHEM",8.55,8.55,3,21,2.8,0.4,2.8,0.4,"","",null,"R2A1HI > 1.5","N",0],
[502,"CDISCPILOT01","1148","01-701-1148","Xanomeline High Dose",81,"Xanomeline High Dose",81,19593,19774,57,"<65",1,"WHITE",1,"M","Y","","Y","Week 2",2,null,null,"",null,"DERIVED","Bilirubin 1.5 x ULN","BILIHY",4,"HYLAW",0,0,null,null,null,null,null,null,"","Normal to Normal",1,"","",null],
[503,"CDISCPILOT01","1148","01-701-1148","Xanomeline High Dose",81,"Xanomeline High Dose",81,19593,19774,57,"<65",1,"WHITE",1,"M","Y","","Y","Week 2",2,null,null,"",null,"DERIVED","Transaminase 1.5 x ULN","TRANSHY",5,"HYLAW",0,0,null,null,null,null,null,null,"","Normal to Normal",1,"","",null],
[504,"CDISCPILOT01","1148","01-701-1148","Xanomeline High Dose",81,"Xanomeline High Dose",81,19593,19774,57,"<65",1,"WHITE",1,"M","Y","","Y","Week 2",2,null,null,"",null,"DERIVED","Total Bili 1.5 x ULN and Transaminase 1.5 x ULN","HYLAW",6,"HYLAW",0,0,null,null,null,null,null,null,"","Normal to Normal",1,"","",null],
[505,"CDISCPILOT01","1148","01-701-1148","Xanomeline High Dose",81,"Xanomeline High Dose",81,19593,19774,57,"<65",1,"WHITE",1,"M","Y","","Y","Week 4",4,28,19620,"WEEK 4",5,"","Alanine Aminotransferase (U/L)","ALT",1,"CHEM",35,34,6,43,5.8,0.8,5.7,0.8,"","",null,"R2A1HI > 1.5","N",0],
[506,"CDISCPILOT01","1148","01-701-1148","Xanomeline High Dose",81,"Xanomeline High Dose",81,19593,19774,57,"<65",1,"WHITE",1,"M","Y","","Y","Week 4",4,28,19620,"WEEK 4",5,"","Aspartate Aminotransferase (U/L)","AST",2,"CHEM",25,25,11,36,2.3,0.7,2.3,0.7,"","",null,"R2A1HI > 1.5","N",0],
[507,"CDISCPILOT01","1148","01-701-1148","Xanomeline High Dose",81,"Xanomeline High Dose",81,19593,19774,57,"<65",1,"WHITE",1,"M","Y","","Y","Week 4",4,28,19620,"WEEK 4",5,"","Bilirubin (umol/L)","BILI",3,"CHEM",8.55,8.55,3,21,2.8,0.4,2.8,0.4,"","",null,"R2A1HI > 1.5","N",0],
[508,"CDISCPILOT01","1148","01-701-1148","Xanomeline High Dose",81,"Xanomeline High Dose",81,19593,19774,57,"<65",1,"WHITE",1,"M","Y","","Y","Week 4",4,null,null,"",null,"DERIVED","Bilirubin 1.5 x ULN","BILIHY",4,"HYLAW",0,0,null,null,null,null,null,null,"","Normal to Normal",1,"","",null],
[509,"CDISCPILOT01","1148","01-701-1148","Xanomeline High Dose",81,"Xanomeline High Dose",81,19593,19774,57,"<65",1,"WHITE",1,"M","Y","","Y","Week 4",4,null,null,"",null,"DERIVED","Transaminase 1.5 x ULN","TRANSHY",5,"HYLAW",0,0,null,null,null,null,null,null,"","Normal to Normal",1,"","",null],
[510,"CDISCPILOT01","1148","01-701-1148","Xanomeline High Dose",81,"Xanomeline High Dose",81,19593,19774,57,"<65",1,"WHITE",1,"M","Y","","Y","Week 4",4,null,null,"",null,"DERIVED","Total Bili 1.5 x ULN and Transaminase 1.5 x ULN","HYLAW",6,"HYLAW",0,0,null,null,null,null,null,null,"","Normal to Normal",1,"","",null],
[511,"CDISCPILOT01","1148","01-701-1148","Xanomeline High Dose",81,"Xanomeline High Dose",81,19593,19774,57,"<65",1,"WHITE",1,"M","Y","","Y","Week 6",6,42,19634,"WEEK 6",7,"","Alanine Aminotransferase (U/L)","ALT",1,"CHEM",31,34,6,43,5.2,0.7,5.7,0.8,"","",null,"R2A1HI > 1.5","N",0],
[512,"CDISCPILOT01","1148","01-701-1148","Xanomeline High Dose",81,"Xanomeline High Dose",81,19593,19774,57,"<65",1,"WHITE",1,"M","Y","","Y","Week 6",6,42,19634,"WEEK 6",7,"","Aspartate Aminotransferase (U/L)","AST",2,"CHEM",22,25,11,36,2,0.6,2.3,0.7,"","",null,"R2A1HI > 1.5","N",0],
[513,"CDISCPILOT01","1148","01-701-1148","Xanomeline High Dose",81,"Xanomeline High Dose",81,19593,19774,57,"<65",1,"WHITE",1,"M","Y","","Y","Week 6",6,42,19634,"WEEK 6",7,"","Bilirubin (umol/L)","BILI",3,"CHEM",8.55,8.55,3,21,2.8,0.4,2.8,0.4,"","",null,"R2A1HI > 1.5","N",0],
[514,"CDISCPILOT01","1148","01-701-1148","Xanomeline High Dose",81,"Xanomeline High Dose",81,19593,19774,57,"<65",1,"WHITE",1,"M","Y","","Y","Week 6",6,null,null,"",null,"DERIVED","Bilirubin 1.5 x ULN","BILIHY",4,"HYLAW",0,0,null,null,null,null,null,null,"","Normal to Normal",1,"","",null],
[515,"CDISCPILOT01","1148","01-701-1148","Xanomeline High Dose",81,"Xanomeline High Dose",81,19593,19774,57,"<65",1,"WHITE",1,"M","Y","","Y","Week 6",6,null,null,"",null,"DERIVED","Transaminase 1.5 x ULN","TRANSHY",5,"HYLAW",0,0,null,null,null,null,null,null,"","Normal to Normal",1,"","",null],
[516,"CDISCPILOT01","1148","01-701-1148","Xanomeline High Dose",81,"Xanomeline High Dose",81,19593,19774,57,"<65",1,"WHITE",1,"M","Y","","Y","Week 6",6,null,null,"",null,"DERIVED","Total Bili 1.5 x ULN and Transaminase 1.5 x ULN","HYLAW",6,"HYLAW",0,0,null,null,null,null,null,null,"","Normal to Normal",1,"","",null],
[517,"CDISCPILOT01","1148","01-701-1148","Xanomeline High Dose",81,"Xanomeline High Dose",81,19593,19774,57,"<65",1,"WHITE",1,"M","Y","","Y","Week 8",8,57,19649,"WEEK 8",8,"","Alanine Aminotransferase (U/L)","ALT",1,"CHEM",31,34,6,43,5.2,0.7,5.7,0.8,"","",null,"R2A1HI > 1.5","N",0],
[518,"CDISCPILOT01","1148","01-701-1148","Xanomeline High Dose",81,"Xanomeline High Dose",81,19593,19774,57,"<65",1,"WHITE",1,"M","Y","","Y","Week 8",8,57,19649,"WEEK 8",8,"","Aspartate Aminotransferase (U/L)","AST",2,"CHEM",26,25,11,36,2.4,0.7,2.3,0.7,"","",null,"R2A1HI > 1.5","N",0],
[519,"CDISCPILOT01","1148","01-701-1148","Xanomeline High Dose",81,"Xanomeline High Dose",81,19593,19774,57,"<65",1,"WHITE",1,"M","Y","","Y","Week 8",8,57,19649,"WEEK 8",8,"","Bilirubin (umol/L)","BILI",3,"CHEM",8.55,8.55,3,21,2.8,0.4,2.8,0.4,"","",null,"R2A1HI > 1.5","N",0],
[520,"CDISCPILOT01","1148","01-701-1148","Xanomeline High Dose",81,"Xanomeline High Dose",81,19593,19774,57,"<65",1,"WHITE",1,"M","Y","","Y","Week 8",8,null,null,"",null,"DERIVED","Bilirubin 1.5 x ULN","BILIHY",4,"HYLAW",0,0,null,null,null,null,null,null,"","Normal to Normal",1,"","",null],
[521,"CDISCPILOT01","1148","01-701-1148","Xanomeline High Dose",81,"Xanomeline High Dose",81,19593,19774,57,"<65",1,"WHITE",1,"M","Y","","Y","Week 8",8,null,null,"",null,"DERIVED","Transaminase 1.5 x ULN","TRANSHY",5,"HYLAW",0,0,null,null,null,null,null,null,"","Normal to Normal",1,"","",null],
[522,"CDISCPILOT01","1148","01-701-1148","Xanomeline High Dose",81,"Xanomeline High Dose",81,19593,19774,57,"<65",1,"WHITE",1,"M","Y","","Y","Week 8",8,null,null,"",null,"DERIVED","Total Bili 1.5 x ULN and Transaminase 1.5 x ULN","HYLAW",6,"HYLAW",0,0,null,null,null,null,null,null,"","Normal to Normal",1,"","",null],
[523,"CDISCPILOT01","1148","01-701-1148","Xanomeline High Dose",81,"Xanomeline High Dose",81,19593,19774,57,"<65",1,"WHITE",1,"M","Y","","Y","Week 12",12,87,19679,"WEEK 12",9,"","Alanine Aminotransferase (U/L)","ALT",1,"CHEM",39,34,6,43,6.5,0.9,5.7,0.8,"","",null,"R2A1HI > 1.5","N",0],
[524,"CDISCPILOT01","1148","01-701-1148","Xanomeline High Dose",81,"Xanomeline High Dose",81,19593,19774,57,"<65",1,"WHITE",1,"M","Y","","Y","Week 12",12,87,19679,"WEEK 12",9,"","Aspartate Aminotransferase (U/L)","AST",2,"CHEM",25,25,11,36,2.3,0.7,2.3,0.7,"","",null,"R2A1HI > 1.5","N",0],
[525,"CDISCPILOT01","1148","01-701-1148","Xanomeline High Dose",81,"Xanomeline High Dose",81,19593,19774,57,"<65",1,"WHITE",1,"M","Y","","Y","Week 12",12,87,19679,"WEEK 12",9,"","Bilirubin (umol/L)","BILI",3,"CHEM",6.84,8.55,3,21,2.3,0.3,2.8,0.4,"","",null,"R2A1HI > 1.5","N",0],
[526,"CDISCPILOT01","1148","01-701-1148","Xanomeline High Dose",81,"Xanomeline High Dose",81,19593,19774,57,"<65",1,"WHITE",1,"M","Y","","Y","Week 12",12,null,null,"",null,"DERIVED","Bilirubin 1.5 x ULN","BILIHY",4,"HYLAW",0,0,null,null,null,null,null,null,"","Normal to Normal",1,"","",null],
[527,"CDISCPILOT01","1148","01-701-1148","Xanomeline High Dose",81,"Xanomeline High Dose",81,19593,19774,57,"<65",1,"WHITE",1,"M","Y","","Y","Week 12",12,null,null,"",null,"DERIVED","Transaminase 1.5 x ULN","TRANSHY",5,"HYLAW",0,0,null,null,null,null,null,null,"","Normal to Normal",1,"","",null],
[528,"CDISCPILOT01","1148","01-701-1148","Xanomeline High Dose",81,"Xanomeline High Dose",81,19593,19774,57,"<65",1,"WHITE",1,"M","Y","","Y","Week 12",12,null,null,"",null,"DERIVED","Total Bili 1.5 x ULN and Transaminase 1.5 x ULN","HYLAW",6,"HYLAW",0,0,null,null,null,null,null,null,"","Normal to Normal",1,"","",null],
[529,"CDISCPILOT01","1148","01-701-1148","Xanomeline High Dose",81,"Xanomeline High Dose",81,19593,19774,57,"<65",1,"WHITE",1,"M","Y","","Y","Week 16",16,113,19705,"WEEK 16",10,"","Alanine Aminotransferase (U/L)","ALT",1,"CHEM",33,34,6,43,5.5,0.8,5.7,0.8,"","",null,"R2A1HI > 1.5","N",0],
[530,"CDISCPILOT01","1148","01-701-1148","Xanomeline High Dose",81,"Xanomeline High Dose",81,19593,19774,57,"<65",1,"WHITE",1,"M","Y","","Y","Week 16",16,113,19705,"WEEK 16",10,"","Aspartate Aminotransferase (U/L)","AST",2,"CHEM",26,25,11,36,2.4,0.7,2.3,0.7,"","",null,"R2A1HI > 1.5","N",0],
[531,"CDISCPILOT01","1148","01-701-1148","Xanomeline High Dose",81,"Xanomeline High Dose",81,19593,19774,57,"<65",1,"WHITE",1,"M","Y","","Y","Week 16",16,113,19705,"WEEK 16",10,"","Bilirubin (umol/L)","BILI",3,"CHEM",11.97,8.55,3,21,4,0.6,2.8,0.4,"","",null,"R2A1HI > 1.5","N",0],
[532,"CDISCPILOT01","1148","01-701-1148","Xanomeline High Dose",81,"Xanomeline High Dose",81,19593,19774,57,"<65",1,"WHITE",1,"M","Y","","Y","Week 16",16,null,null,"",null,"DERIVED","Bilirubin 1.5 x ULN","BILIHY",4,"HYLAW",0,0,null,null,null,null,null,null,"","Normal to Normal",1,"","",null],
[533,"CDISCPILOT01","1148","01-701-1148","Xanomeline High Dose",81,"Xanomeline High Dose",81,19593,19774,57,"<65",1,"WHITE",1,"M","Y","","Y","Week 16",16,null,null,"",null,"DERIVED","Transaminase 1.5 x ULN","TRANSHY",5,"HYLAW",0,0,null,null,null,null,null,null,"","Normal to Normal",1,"","",null],
[534,"CDISCPILOT01","1148","01-701-1148","Xanomeline High Dose",81,"Xanomeline High Dose",81,19593,19774,57,"<65",1,"WHITE",1,"M","Y","","Y","Week 16",16,null,null,"",null,"DERIVED","Total Bili 1.5 x ULN and Transaminase 1.5 x ULN","HYLAW",6,"HYLAW",0,0,null,null,null,null,null,null,"","Normal to Normal",1,"","",null],
[535,"CDISCPILOT01","1148","01-701-1148","Xanomeline High Dose",81,"Xanomeline High Dose",81,19593,19774,57,"<65",1,"WHITE",1,"M","Y","","Y","Week 20",20,141,19733,"WEEK 20",11,"","Alanine Aminotransferase (U/L)","ALT",1,"CHEM",32,34,6,43,5.3,0.7,5.7,0.8,"","",null,"R2A1HI > 1.5","N",0],
[536,"CDISCPILOT01","1148","01-701-1148","Xanomeline High Dose",81,"Xanomeline High Dose",81,19593,19774,57,"<65",1,"WHITE",1,"M","Y","","Y","Week 20",20,141,19733,"WEEK 20",11,"","Aspartate Aminotransferase (U/L)","AST",2,"CHEM",26,25,11,36,2.4,0.7,2.3,0.7,"","",null,"R2A1HI > 1.5","N",0],
[537,"CDISCPILOT01","1148","01-701-1148","Xanomeline High Dose",81,"Xanomeline High Dose",81,19593,19774,57,"<65",1,"WHITE",1,"M","Y","","Y","Week 20",20,141,19733,"WEEK 20",11,"","Bilirubin (umol/L)","BILI",3,"CHEM",6.84,8.55,3,21,2.3,0.3,2.8,0.4,"","",null,"R2A1HI > 1.5","N",0],
[538,"CDISCPILOT01","1148","01-701-1148","Xanomeline High Dose",81,"Xanomeline High Dose",81,19593,19774,57,"<65",1,"WHITE",1,"M","Y","","Y","Week 20",20,null,null,"",null,"DERIVED","Bilirubin 1.5 x ULN","BILIHY",4,"HYLAW",0,0,null,null,null,null,null,null,"","Normal to Normal",1,"","",null],
[539,"CDISCPILOT01","1148","01-701-1148","Xanomeline High Dose",81,"Xanomeline High Dose",81,19593,19774,57,"<65",1,"WHITE",1,"M","Y","","Y","Week 20",20,null,null,"",null,"DERIVED","Transaminase 1.5 x ULN","TRANSHY",5,"HYLAW",0,0,null,null,null,null,null,null,"","Normal to Normal",1,"","",null],
[540,"CDISCPILOT01","1148","01-701-1148","Xanomeline High Dose",81,"Xanomeline High Dose",81,19593,19774,57,"<65",1,"WHITE",1,"M","Y","","Y","Week 20",20,null,null,"",null,"DERIVED","Total Bili 1.5 x ULN and Transaminase 1.5 x ULN","HYLAW",6,"HYLAW",0,0,null,null,null,null,null,null,"","Normal to Normal",1,"","",null],
[541,"CDISCPILOT01","1148","01-701-1148","Xanomeline High Dose",81,"Xanomeline High Dose",81,19593,19774,57,"<65",1,"WHITE",1,"M","Y","","Y","Week 24",24,170,19762,"WEEK 24",12,"","Alanine Aminotransferase (U/L)","ALT",1,"CHEM",37,34,6,43,6.2,0.9,5.7,0.8,"","",null,"R2A1HI > 1.5","N",0],
[542,"CDISCPILOT01","1148","01-701-1148","Xanomeline High Dose",81,"Xanomeline High Dose",81,19593,19774,57,"<65",1,"WHITE",1,"M","Y","","Y","Week 24",24,170,19762,"WEEK 24",12,"","Aspartate Aminotransferase (U/L)","AST",2,"CHEM",30,25,11,36,2.7,0.8,2.3,0.7,"","",null,"R2A1HI > 1.5","N",0],
[543,"CDISCPILOT01","1148","01-701-1148","Xanomeline High Dose",81,"Xanomeline High Dose",81,19593,19774,57,"<65",1,"WHITE",1,"M","Y","","Y","Week 24",24,170,19762,"WEEK 24",12,"","Bilirubin (umol/L)","BILI",3,"CHEM",6.84,8.55,3,21,2.3,0.3,2.8,0.4,"","",null,"R2A1HI > 1.5","N",0],
[544,"CDISCPILOT01","1148","01-701-1148","Xanomeline High Dose",81,"Xanomeline High Dose",81,19593,19774,57,"<65",1,"WHITE",1,"M","Y","","Y","Week 24",24,null,null,"",null,"DERIVED","Bilirubin 1.5 x ULN","BILIHY",4,"HYLAW",0,0,null,null,null,null,null,null,"","Normal to Normal",1,"","",null],
[545,"CDISCPILOT01","1148","01-701-1148","Xanomeline High Dose",81,"Xanomeline High Dose",81,19593,19774,57,"<65",1,"WHITE",1,"M","Y","","Y","Week 24",24,null,null,"",null,"DERIVED","Transaminase 1.5 x ULN","TRANSHY",5,"HYLAW",0,0,null,null,null,null,null,null,"","Normal to Normal",1,"","",null],
[546,"CDISCPILOT01","1148","01-701-1148","Xanomeline High Dose",81,"Xanomeline High Dose",81,19593,19774,57,"<65",1,"WHITE",1,"M","Y","","Y","Week 24",24,null,null,"",null,"DERIVED","Total Bili 1.5 x ULN and Transaminase 1.5 x ULN","HYLAW",6,"HYLAW",0,0,null,null,null,null,null,null,"","Normal to Normal",1,"","",null],
[547,"CDISCPILOT01","1153","01-701-1153","Placebo",0,"Placebo",0,19624,19798,79,"65-80",2,"WHITE",1,"F","Y","","Y","Baseline",0,-17,19607,"SCREENING 1",1,"","Alanine Aminotransferase (U/L)","ALT",1,"CHEM",13,13,6,32,2.2,0.4,2.2,0.4,"Y","",null,"R2A1HI > 1.5","N",0],
[548,"CDISCPILOT01","1153","01-701-1153","Placebo",0,"Placebo",0,19624,19798,79,"65-80",2,"WHITE",1,"F","Y","","Y","Baseline",0,-17,19607,"SCREENING 1",1,"","Aspartate Aminotransferase (U/L)","AST",2,"CHEM",24,24,9,34,2.7,0.7,2.7,0.7,"Y","",null,"R2A1HI > 1.5","N",0],
[549,"CDISCPILOT01","1153","01-701-1153","Placebo",0,"Placebo",0,19624,19798,79,"65-80",2,"WHITE",1,"F","Y","","Y","Baseline",0,-17,19607,"SCREENING 1",1,"","Bilirubin (umol/L)","BILI",3,"CHEM",5.13,5.13,3,21,1.7,0.2,1.7,0.2,"Y","",null,"R2A1HI > 1.5","N",0],
[550,"CDISCPILOT01","1153","01-701-1153","Placebo",0,"Placebo",0,19624,19798,79,"65-80",2,"WHITE",1,"F","Y","","Y","Baseline",0,null,null,"",null,"DERIVED","Bilirubin 1.5 x ULN","BILIHY",4,"HYLAW",0,0,null,null,null,null,null,null,"Y","Normal to Normal",1,"","",null],
[551,"CDISCPILOT01","1153","01-701-1153","Placebo",0,"Placebo",0,19624,19798,79,"65-80",2,"WHITE",1,"F","Y","","Y","Baseline",0,null,null,"",null,"DERIVED","Transaminase 1.5 x ULN","TRANSHY",5,"HYLAW",0,0,null,null,null,null,null,null,"Y","Normal to Normal",1,"","",null],
[552,"CDISCPILOT01","1153","01-701-1153","Placebo",0,"Placebo",0,19624,19798,79,"65-80",2,"WHITE",1,"F","Y","","Y","Baseline",0,null,null,"",null,"DERIVED","Total Bili 1.5 x ULN and Transaminase 1.5 x ULN","HYLAW",6,"HYLAW",0,0,null,null,null,null,null,null,"Y","Normal to Normal",1,"","",null],
[553,"CDISCPILOT01","1153","01-701-1153","Placebo",0,"Placebo",0,19624,19798,79,"65-80",2,"WHITE",1,"F","Y","","Y","Week 2",2,16,19639,"WEEK 2",4,"","Alanine Aminotransferase (U/L)","ALT",1,"CHEM",14,13,6,32,2.3,0.4,2.2,0.4,"","",null,"R2A1HI > 1.5","N",0],
[554,"CDISCPILOT01","1153","01-701-1153","Placebo",0,"Placebo",0,19624,19798,79,"65-80",2,"WHITE",1,"F","Y","","Y","Week 2",2,16,19639,"WEEK 2",4,"","Aspartate Aminotransferase (U/L)","AST",2,"CHEM",25,24,9,34,2.8,0.7,2.7,0.7,"","",null,"R2A1HI > 1.5","N",0],
[555,"CDISCPILOT01","1153","01-701-1153","Placebo",0,"Placebo",0,19624,19798,79,"65-80",2,"WHITE",1,"F","Y","","Y","Week 2",2,16,19639,"WEEK 2",4,"","Bilirubin (umol/L)","BILI",3,"CHEM",6.84,5.13,3,21,2.3,0.3,1.7,0.2,"","",null,"R2A1HI > 1.5","N",0],
[556,"CDISCPILOT01","1153","01-701-1153","Placebo",0,"Placebo",0,19624,19798,79,"65-80",2,"WHITE",1,"F","Y","","Y","Week 2",2,null,null,"",null,"DERIVED","Bilirubin 1.5 x ULN","BILIHY",4,"HYLAW",0,0,null,null,null,null,null,null,"","Normal to Normal",1,"","",null],
[557,"CDISCPILOT01","1153","01-701-1153","Placebo",0,"Placebo",0,19624,19798,79,"65-80",2,"WHITE",1,"F","Y","","Y","Week 2",2,null,null,"",null,"DERIVED","Transaminase 1.5 x ULN","TRANSHY",5,"HYLAW",0,0,null,null,null,null,null,null,"","Normal to Normal",1,"","",null],
[558,"CDISCPILOT01","1153","01-701-1153","Placebo",0,"Placebo",0,19624,19798,79,"65-80",2,"WHITE",1,"F","Y","","Y","Week 2",2,null,null,"",null,"DERIVED","Total Bili 1.5 x ULN and Transaminase 1.5 x ULN","HYLAW",6,"HYLAW",0,0,null,null,null,null,null,null,"","Normal to Normal",1,"","",null],
[559,"CDISCPILOT01","1153","01-701-1153","Placebo",0,"Placebo",0,19624,19798,79,"65-80",2,"WHITE",1,"F","Y","","Y","Week 4",4,27,19650,"WEEK 4",5,"","Alanine Aminotransferase (U/L)","ALT",1,"CHEM",14,13,6,32,2.3,0.4,2.2,0.4,"","",null,"R2A1HI > 1.5","N",0],
[560,"CDISCPILOT01","1153","01-701-1153","Placebo",0,"Placebo",0,19624,19798,79,"65-80",2,"WHITE",1,"F","Y","","Y","Week 4",4,27,19650,"WEEK 4",5,"","Aspartate Aminotransferase (U/L)","AST",2,"CHEM",22,24,9,34,2.4,0.6,2.7,0.7,"","",null,"R2A1HI > 1.5","N",0],
[561,"CDISCPILOT01","1153","01-701-1153","Placebo",0,"Placebo",0,19624,19798,79,"65-80",2,"WHITE",1,"F","Y","","Y","Week 4",4,27,19650,"WEEK 4",5,"","Bilirubin (umol/L)","BILI",3,"CHEM",6.84,5.13,3,21,2.3,0.3,1.7,0.2,"","",null,"R2A1HI > 1.5","N",0],
[562,"CDISCPILOT01","1153","01-701-1153","Placebo",0,"Placebo",0,19624,19798,79,"65-80",2,"WHITE",1,"F","Y","","Y","Week 4",4,null,null,"",null,"DERIVED","Bilirubin 1.5 x ULN","BILIHY",4,"HYLAW",0,0,null,null,null,null,null,null,"","Normal to Normal",1,"","",null],
[563,"CDISCPILOT01","1153","01-701-1153","Placebo",0,"Placebo",0,19624,19798,79,"65-80",2,"WHITE",1,"F","Y","","Y","Week 4",4,null,null,"",null,"DERIVED","Transaminase 1.5 x ULN","TRANSHY",5,"HYLAW",0,0,null,null,null,null,null,null,"","Normal to Normal",1,"","",null],
[564,"CDISCPILOT01","1153","01-701-1153","Placebo",0,"Placebo",0,19624,19798,79,"65-80",2,"WHITE",1,"F","Y","","Y","Week 4",4,null,null,"",null,"DERIVED","Total Bili 1.5 x ULN and Transaminase 1.5 x ULN","HYLAW",6,"HYLAW",0,0,null,null,null,null,null,null,"","Normal to Normal",1,"","",null],
[565,"CDISCPILOT01","1153","01-701-1153","Placebo",0,"Placebo",0,19624,19798,79,"65-80",2,"WHITE",1,"F","Y","","Y","Week 6",6,43,19666,"WEEK 6",7,"","Alanine Aminotransferase (U/L)","ALT",1,"CHEM",14,13,6,32,2.3,0.4,2.2,0.4,"","",null,"R2A1HI > 1.5","N",0],
[566,"CDISCPILOT01","1153","01-701-1153","Placebo",0,"Placebo",0,19624,19798,79,"65-80",2,"WHITE",1,"F","Y","","Y","Week 6",6,43,19666,"WEEK 6",7,"","Aspartate Aminotransferase (U/L)","AST",2,"CHEM",22,24,9,34,2.4,0.6,2.7,0.7,"","",null,"R2A1HI > 1.5","N",0],
[567,"CDISCPILOT01","1153","01-701-1153","Placebo",0,"Placebo",0,19624,19798,79,"65-80",2,"WHITE",1,"F","Y","","Y","Week 6",6,43,19666,"WEEK 6",7,"","Bilirubin (umol/L)","BILI",3,"CHEM",6.84,5.13,3,21,2.3,0.3,1.7,0.2,"","",null,"R2A1HI > 1.5","N",0],
[568,"CDISCPILOT01","1153","01-701-1153","Placebo",0,"Placebo",0,19624,19798,79,"65-80",2,"WHITE",1,"F","Y","","Y","Week 6",6,null,null,"",null,"DERIVED","Bilirubin 1.5 x ULN","BILIHY",4,"HYLAW",0,0,null,null,null,null,null,null,"","Normal to Normal",1,"","",null],
[569,"CDISCPILOT01","1153","01-701-1153","Placebo",0,"Placebo",0,19624,19798,79,"65-80",2,"WHITE",1,"F","Y","","Y","Week 6",6,null,null,"",null,"DERIVED","Transaminase 1.5 x ULN","TRANSHY",5,"HYLAW",0,0,null,null,null,null,null,null,"","Normal to Normal",1,"","",null],
[570,"CDISCPILOT01","1153","01-701-1153","Placebo",0,"Placebo",0,19624,19798,79,"65-80",2,"WHITE",1,"F","Y","","Y","Week 6",6,null,null,"",null,"DERIVED","Total Bili 1.5 x ULN and Transaminase 1.5 x ULN","HYLAW",6,"HYLAW",0,0,null,null,null,null,null,null,"","Normal to Normal",1,"","",null],
[571,"CDISCPILOT01","1153","01-701-1153","Placebo",0,"Placebo",0,19624,19798,79,"65-80",2,"WHITE",1,"F","Y","","Y","Week 8",8,57,19680,"WEEK 8",8,"","Alanine Aminotransferase (U/L)","ALT",1,"CHEM",11,13,6,32,1.8,0.3,2.2,0.4,"","",null,"R2A1HI > 1.5","N",0],
[572,"CDISCPILOT01","1153","01-701-1153","Placebo",0,"Placebo",0,19624,19798,79,"65-80",2,"WHITE",1,"F","Y","","Y","Week 8",8,57,19680,"WEEK 8",8,"","Aspartate Aminotransferase (U/L)","AST",2,"CHEM",21,24,9,34,2.3,0.6,2.7,0.7,"","",null,"R2A1HI > 1.5","N",0],
[573,"CDISCPILOT01","1153","01-701-1153","Placebo",0,"Placebo",0,19624,19798,79,"65-80",2,"WHITE",1,"F","Y","","Y","Week 8",8,57,19680,"WEEK 8",8,"","Bilirubin (umol/L)","BILI",3,"CHEM",5.13,5.13,3,21,1.7,0.2,1.7,0.2,"","",null,"R2A1HI > 1.5","N",0],
[574,"CDISCPILOT01","1153","01-701-1153","Placebo",0,"Placebo",0,19624,19798,79,"65-80",2,"WHITE",1,"F","Y","","Y","Week 8",8,null,null,"",null,"DERIVED","Bilirubin 1.5 x ULN","BILIHY",4,"HYLAW",0,0,null,null,null,null,null,null,"","Normal to Normal",1,"","",null],
[575,"CDISCPILOT01","1153","01-701-1153","Placebo",0,"Placebo",0,19624,19798,79,"65-80",2,"WHITE",1,"F","Y","","Y","Week 8",8,null,null,"",null,"DERIVED","Transaminase 1.5 x ULN","TRANSHY",5,"HYLAW",0,0,null,null,null,null,null,null,"","Normal to Normal",1,"","",null],
[576,"CDISCPILOT01","1153","01-701-1153","Placebo",0,"Placebo",0,19624,19798,79,"65-80",2,"WHITE",1,"F","Y","","Y","Week 8",8,null,null,"",null,"DERIVED","Total Bili 1.5 x ULN and Transaminase 1.5 x ULN","HYLAW",6,"HYLAW",0,0,null,null,null,null,null,null,"","Normal to Normal",1,"","",null],
[577,"CDISCPILOT01","1153","01-701-1153","Placebo",0,"Placebo",0,19624,19798,79,"65-80",2,"WHITE",1,"F","Y","","Y","Week 12",12,85,19708,"WEEK 12",9,"","Alanine Aminotransferase (U/L)","ALT",1,"CHEM",13,13,6,32,2.2,0.4,2.2,0.4,"","",null,"R2A1HI > 1.5","N",0],
[578,"CDISCPILOT01","1153","01-701-1153","Placebo",0,"Placebo",0,19624,19798,79,"65-80",2,"WHITE",1,"F","Y","","Y","Week 12",12,85,19708,"WEEK 12",9,"","Aspartate Aminotransferase (U/L)","AST",2,"CHEM",22,24,9,34,2.4,0.6,2.7,0.7,"","",null,"R2A1HI > 1.5","N",0],
[579,"CDISCPILOT01","1153","01-701-1153","Placebo",0,"Placebo",0,19624,19798,79,"65-80",2,"WHITE",1,"F","Y","","Y","Week 12",12,85,19708,"WEEK 12",9,"","Bilirubin (umol/L)","BILI",3,"CHEM",6.84,5.13,3,21,2.3,0.3,1.7,0.2,"","",null,"R2A1HI > 1.5","N",0],
[580,"CDISCPILOT01","1153","01-701-1153","Placebo",0,"Placebo",0,19624,19798,79,"65-80",2,"WHITE",1,"F","Y","","Y","Week 12",12,null,null,"",null,"DERIVED","Bilirubin 1.5 x ULN","BILIHY",4,"HYLAW",0,0,null,null,null,null,null,null,"","Normal to Normal",1,"","",null],
[581,"CDISCPILOT01","1153","01-701-1153","Placebo",0,"Placebo",0,19624,19798,79,"65-80",2,"WHITE",1,"F","Y","","Y","Week 12",12,null,null,"",null,"DERIVED","Transaminase 1.5 x ULN","TRANSHY",5,"HYLAW",0,0,null,null,null,null,null,null,"","Normal to Normal",1,"","",null],
[582,"CDISCPILOT01","1153","01-701-1153","Placebo",0,"Placebo",0,19624,19798,79,"65-80",2,"WHITE",1,"F","Y","","Y","Week 12",12,null,null,"",null,"DERIVED","Total Bili 1.5 x ULN and Transaminase 1.5 x ULN","HYLAW",6,"HYLAW",0,0,null,null,null,null,null,null,"","Normal to Normal",1,"","",null],
[583,"CDISCPILOT01","1153","01-701-1153","Placebo",0,"Placebo",0,19624,19798,79,"65-80",2,"WHITE",1,"F","Y","","Y","Week 16",16,108,19731,"WEEK 16",10,"","Alanine Aminotransferase (U/L)","ALT",1,"CHEM",17,13,6,32,2.8,0.5,2.2,0.4,"","",null,"R2A1HI > 1.5","N",0],
[584,"CDISCPILOT01","1153","01-701-1153","Placebo",0,"Placebo",0,19624,19798,79,"65-80",2,"WHITE",1,"F","Y","","Y","Week 16",16,108,19731,"WEEK 16",10,"","Aspartate Aminotransferase (U/L)","AST",2,"CHEM",25,24,9,34,2.8,0.7,2.7,0.7,"","",null,"R2A1HI > 1.5","N",0],
[585,"CDISCPILOT01","1153","01-701-1153","Placebo",0,"Placebo",0,19624,19798,79,"65-80",2,"WHITE",1,"F","Y","","Y","Week 16",16,108,19731,"WEEK 16",10,"","Bilirubin (umol/L)","BILI",3,"CHEM",8.55,5.13,3,21,2.8,0.4,1.7,0.2,"","",null,"R2A1HI > 1.5","N",0],
[586,"CDISCPILOT01","1153","01-701-1153","Placebo",0,"Placebo",0,19624,19798,79,"65-80",2,"WHITE",1,"F","Y","","Y","Week 16",16,null,null,"",null,"DERIVED","Bilirubin 1.5 x ULN","BILIHY",4,"HYLAW",0,0,null,null,null,null,null,null,"","Normal to Normal",1,"","",null],
[587,"CDISCPILOT01","1153","01-701-1153","Placebo",0,"Placebo",0,19624,19798,79,"65-80",2,"WHITE",1,"F","Y","","Y","Week 16",16,null,null,"",null,"DERIVED","Transaminase 1.5 x ULN","TRANSHY",5,"HYLAW",0,0,null,null,null,null,null,null,"","Normal to Normal",1,"","",null],
[588,"CDISCPILOT01","1153","01-701-1153","Placebo",0,"Placebo",0,19624,19798,79,"65-80",2,"WHITE",1,"F","Y","","Y","Week 16",16,null,null,"",null,"DERIVED","Total Bili 1.5 x ULN and Transaminase 1.5 x ULN","HYLAW",6,"HYLAW",0,0,null,null,null,null,null,null,"","Normal to Normal",1,"","",null],
[589,"CDISCPILOT01","1153","01-701-1153","Placebo",0,"Placebo",0,19624,19798,79,"65-80",2,"WHITE",1,"F","Y","","Y","Week 20",20,142,19765,"WEEK 20",11,"","Alanine Aminotransferase (U/L)","ALT",1,"CHEM",14,13,6,32,2.3,0.4,2.2,0.4,"","",null,"R2A1HI > 1.5","N",0],
[590,"CDISCPILOT01","1153","01-701-1153","Placebo",0,"Placebo",0,19624,19798,79,"65-80",2,"WHITE",1,"F","Y","","Y","Week 20",20,142,19765,"WEEK 20",11,"","Aspartate Aminotransferase (U/L)","AST",2,"CHEM",24,24,9,34,2.7,0.7,2.7,0.7,"","",null,"R2A1HI > 1.5","N",0],
[591,"CDISCPILOT01","1153","01-701-1153","Placebo",0,"Placebo",0,19624,19798,79,"65-80",2,"WHITE",1,"F","Y","","Y","Week 20",20,142,19765,"WEEK 20",11,"","Bilirubin (umol/L)","BILI",3,"CHEM",5.13,5.13,3,21,1.7,0.2,1.7,0.2,"","",null,"R2A1HI > 1.5","N",0],
[592,"CDISCPILOT01","1153","01-701-1153","Placebo",0,"Placebo",0,19624,19798,79,"65-80",2,"WHITE",1,"F","Y","","Y","Week 20",20,null,null,"",null,"DERIVED","Bilirubin 1.5 x ULN","BILIHY",4,"HYLAW",0,0,null,null,null,null,null,null,"","Normal to Normal",1,"","",null],
[593,"CDISCPILOT01","1153","01-701-1153","Placebo",0,"Placebo",0,19624,19798,79,"65-80",2,"WHITE",1,"F","Y","","Y","Week 20",20,null,null,"",null,"DERIVED","Transaminase 1.5 x ULN","TRANSHY",5,"HYLAW",0,0,null,null,null,null,null,null,"","Normal to Normal",1,"","",null],
[594,"CDISCPILOT01","1153","01-701-1153","Placebo",0,"Placebo",0,19624,19798,79,"65-80",2,"WHITE",1,"F","Y","","Y","Week 20",20,null,null,"",null,"DERIVED","Total Bili 1.5 x ULN and Transaminase 1.5 x ULN","HYLAW",6,"HYLAW",0,0,null,null,null,null,null,null,"","Normal to Normal",1,"","",null],
[595,"CDISCPILOT01","1153","01-701-1153","Placebo",0,"Placebo",0,19624,19798,79,"65-80",2,"WHITE",1,"F","Y","","Y","Week 24",24,170,19793,"WEEK 24",12,"","Alanine Aminotransferase (U/L)","ALT",1,"CHEM",13,13,6,32,2.2,0.4,2.2,0.4,"","",null,"R2A1HI > 1.5","N",0],
[596,"CDISCPILOT01","1153","01-701-1153","Placebo",0,"Placebo",0,19624,19798,79,"65-80",2,"WHITE",1,"F","Y","","Y","Week 24",24,170,19793,"WEEK 24",12,"","Aspartate Aminotransferase (U/L)","AST",2,"CHEM",22,24,9,34,2.4,0.6,2.7,0.7,"","",null,"R2A1HI > 1.5","N",0],
[597,"CDISCPILOT01","1153","01-701-1153","Placebo",0,"Placebo",0,19624,19798,79,"65-80",2,"WHITE",1,"F","Y","","Y","Week 24",24,170,19793,"WEEK 24",12,"","Bilirubin (umol/L)","BILI",3,"CHEM",6.84,5.13,3,21,2.3,0.3,1.7,0.2,"","",null,"R2A1HI > 1.5","N",0],
[598,"CDISCPILOT01","1153","01-701-1153","Placebo",0,"Placebo",0,19624,19798,79,"65-80",2,"WHITE",1,"F","Y","","Y","Week 24",24,null,null,"",null,"DERIVED","Bilirubin 1.5 x ULN","BILIHY",4,"HYLAW",0,0,null,null,null,null,null,null,"","Normal to Normal",1,"","",null],
[599,"CDISCPILOT01","1153","01-701-1153","Placebo",0,"Placebo",0,19624,19798,79,"65-80",2,"WHITE",1,"F","Y","","Y","Week 24",24,null,null,"",null,"DERIVED","Transaminase 1.5 x ULN","TRANSHY",5,"HYLAW",0,0,null,null,null,null,null,null,"","Normal to Normal",1,"","",null],
[600,"CDISCPILOT01","1153","01-701-1153","Placebo",0,"Placebo",0,19624,19798,79,"65-80",2,"WHITE",1,"F","Y","","Y","Week 24",24,null,null,"",null,"DERIVED","Total Bili 1.5 x ULN and Transaminase 1.5 x ULN","HYLAW",6,"HYLAW",0,0,null,null,null,null,null,null,"","Normal to Normal",1,"","",null],
[601,"CDISCPILOT01","1180","01-701-1180","Xanomeline High Dose",81,"Xanomeline High Dose",81,19401,19435,56,"<65",1,"WHITE",1,"M","N","Y","Y","Baseline",0,-15,19386,"SCREENING 1",1,"","Alanine Aminotransferase (U/L)","ALT",1,"CHEM",29,29,6,43,4.8,0.7,4.8,0.7,"Y","",null,"R2A1HI > 1.5","N",0],
[602,"CDISCPILOT01","1180","01-701-1180","Xanomeline High Dose",81,"Xanomeline High Dose",81,19401,19435,56,"<65",1,"WHITE",1,"M","N","Y","Y","Baseline",0,-15,19386,"SCREENING 1",1,"","Aspartate Aminotransferase (U/L)","AST",2,"CHEM",21,21,11,36,1.9,0.6,1.9,0.6,"Y","",null,"R2A1HI > 1.5","N",0],
[603,"CDISCPILOT01","1180","01-701-1180","Xanomeline High Dose",81,"Xanomeline High Dose",81,19401,19435,56,"<65",1,"WHITE",1,"M","N","Y","Y","Baseline",0,-15,19386,"SCREENING 1",1,"","Bilirubin (umol/L)","BILI",3,"CHEM",11.97,11.97,3,21,4,0.6,4,0.6,"Y","",null,"R2A1HI > 1.5","N",0],
[604,"CDISCPILOT01","1180","01-701-1180","Xanomeline High Dose",81,"Xanomeline High Dose",81,19401,19435,56,"<65",1,"WHITE",1,"M","N","Y","Y","Baseline",0,null,null,"",null,"DERIVED","Bilirubin 1.5 x ULN","BILIHY",4,"HYLAW",0,0,null,null,null,null,null,null,"Y","Normal to Normal",1,"","",null],
[605,"CDISCPILOT01","1180","01-701-1180","Xanomeline High Dose",81,"Xanomeline High Dose",81,19401,19435,56,"<65",1,"WHITE",1,"M","N","Y","Y","Baseline",0,null,null,"",null,"DERIVED","Transaminase 1.5 x ULN","TRANSHY",5,"HYLAW",0,0,null,null,null,null,null,null,"Y","Normal to Normal",1,"","",null],
[606,"CDISCPILOT01","1180","01-701-1180","Xanomeline High Dose",81,"Xanomeline High Dose",81,19401,19435,56,"<65",1,"WHITE",1,"M","N","Y","Y","Baseline",0,null,null,"",null,"DERIVED","Total Bili 1.5 x ULN and Transaminase 1.5 x ULN","HYLAW",6,"HYLAW",0,0,null,null,null,null,null,null,"Y","Normal to Normal",1,"","",null],
[607,"CDISCPILOT01","1180","01-701-1180","Xanomeline High Dose",81,"Xanomeline High Dose",81,19401,19435,56,"<65",1,"WHITE",1,"M","N","Y","Y","Week 2",2,14,19414,"WEEK 2",4,"","Alanine Aminotransferase (U/L)","ALT",1,"CHEM",29,29,6,43,4.8,0.7,4.8,0.7,"","",null,"R2A1HI > 1.5","N",0],
[608,"CDISCPILOT01","1180","01-701-1180","Xanomeline High Dose",81,"Xanomeline High Dose",81,19401,19435,56,"<65",1,"WHITE",1,"M","N","Y","Y","Week 2",2,14,19414,"WEEK 2",4,"","Aspartate Aminotransferase (U/L)","AST",2,"CHEM",25,21,11,36,2.3,0.7,1.9,0.6,"","",null,"R2A1HI > 1.5","N",0],
[609,"CDISCPILOT01","1180","01-701-1180","Xanomeline High Dose",81,"Xanomeline High Dose",81,19401,19435,56,"<65",1,"WHITE",1,"M","N","Y","Y","Week 2",2,14,19414,"WEEK 2",4,"","Bilirubin (umol/L)","BILI",3,"CHEM",8.55,11.97,3,21,2.8,0.4,4,0.6,"","",null,"R2A1HI > 1.5","N",0],
[610,"CDISCPILOT01","1180","01-701-1180","Xanomeline High Dose",81,"Xanomeline High Dose",81,19401,19435,56,"<65",1,"WHITE",1,"M","N","Y","Y","Week 2",2,null,null,"",null,"DERIVED","Bilirubin 1.5 x ULN","BILIHY",4,"HYLAW",0,0,null,null,null,null,null,null,"","Normal to Normal",1,"","",null],
[611,"CDISCPILOT01","1180","01-701-1180","Xanomeline High Dose",81,"Xanomeline High Dose",81,19401,19435,56,"<65",1,"WHITE",1,"M","N","Y","Y","Week 2",2,null,null,"",null,"DERIVED","Transaminase 1.5 x ULN","TRANSHY",5,"HYLAW",0,0,null,null,null,null,null,null,"","Normal to Normal",1,"","",null],
[612,"CDISCPILOT01","1180","01-701-1180","Xanomeline High Dose",81,"Xanomeline High Dose",81,19401,19435,56,"<65",1,"WHITE",1,"M","N","Y","Y","Week 2",2,null,null,"",null,"DERIVED","Total Bili 1.5 x ULN and Transaminase 1.5 x ULN","HYLAW",6,"HYLAW",0,0,null,null,null,null,null,null,"","Normal to Normal",1,"","",null],
[613,"CDISCPILOT01","1180","01-701-1180","Xanomeline High Dose",81,"Xanomeline High Dose",81,19401,19435,56,"<65",1,"WHITE",1,"M","N","Y","Y","Week 4",4,28,19428,"WEEK 4",5,"","Alanine Aminotransferase (U/L)","ALT",1,"CHEM",20,29,6,43,3.3,0.5,4.8,0.7,"","",null,"R2A1HI > 1.5","N",0],
[614,"CDISCPILOT01","1180","01-701-1180","Xanomeline High Dose",81,"Xanomeline High Dose",81,19401,19435,56,"<65",1,"WHITE",1,"M","N","Y","Y","Week 4",4,28,19428,"WEEK 4",5,"","Aspartate Aminotransferase (U/L)","AST",2,"CHEM",17,21,11,36,1.5,0.5,1.9,0.6,"","",null,"R2A1HI > 1.5","N",0],
[615,"CDISCPILOT01","1180","01-701-1180","Xanomeline High Dose",81,"Xanomeline High Dose",81,19401,19435,56,"<65",1,"WHITE",1,"M","N","Y","Y","Week 4",4,28,19428,"WEEK 4",5,"","Bilirubin (umol/L)","BILI",3,"CHEM",10.26,11.97,3,21,3.4,0.5,4,0.6,"","",null,"R2A1HI > 1.5","N",0],
[616,"CDISCPILOT01","1180","01-701-1180","Xanomeline High Dose",81,"Xanomeline High Dose",81,19401,19435,56,"<65",1,"WHITE",1,"M","N","Y","Y","Week 4",4,null,null,"",null,"DERIVED","Bilirubin 1.5 x ULN","BILIHY",4,"HYLAW",0,0,null,null,null,null,null,null,"","Normal to Normal",1,"","",null],
[617,"CDISCPILOT01","1180","01-701-1180","Xanomeline High Dose",81,"Xanomeline High Dose",81,19401,19435,56,"<65",1,"WHITE",1,"M","N","Y","Y","Week 4",4,null,null,"",null,"DERIVED","Transaminase 1.5 x ULN","TRANSHY",5,"HYLAW",0,0,null,null,null,null,null,null,"","Normal to Normal",1,"","",null],
[618,"CDISCPILOT01","1180","01-701-1180","Xanomeline High Dose",81,"Xanomeline High Dose",81,19401,19435,56,"<65",1,"WHITE",1,"M","N","Y","Y","Week 4",4,null,null,"",null,"DERIVED","Total Bili 1.5 x ULN and Transaminase 1.5 x ULN","HYLAW",6,"HYLAW",0,0,null,null,null,null,null,null,"","Normal to Normal",1,"","",null],
[619,"CDISCPILOT01","1180","01-701-1180","Xanomeline High Dose",81,"Xanomeline High Dose",81,19401,19435,56,"<65",1,"WHITE",1,"M","N","Y","Y","Week 6",6,40,19440,"WEEK 6",7,"","Alanine Aminotransferase (U/L)","ALT",1,"CHEM",19,29,6,43,3.2,0.4,4.8,0.7,"","",null,"R2A1HI > 1.5","N",0],
[620,"CDISCPILOT01","1180","01-701-1180","Xanomeline High Dose",81,"Xanomeline High Dose",81,19401,19435,56,"<65",1,"WHITE",1,"M","N","Y","Y","Week 6",6,40,19440,"WEEK 6",7,"","Aspartate Aminotransferase (U/L)","AST",2,"CHEM",21,21,11,36,1.9,0.6,1.9,0.6,"","",null,"R2A1HI > 1.5","N",0],
[621,"CDISCPILOT01","1180","01-701-1180","Xanomeline High Dose",81,"Xanomeline High Dose",81,19401,19435,56,"<65",1,"WHITE",1,"M","N","Y","Y","Week 6",6,40,19440,"WEEK 6",7,"","Bilirubin (umol/L)","BILI",3,"CHEM",8.55,11.97,3,21,2.8,0.4,4,0.6,"","",null,"R2A1HI > 1.5","N",0],
[622,"CDISCPILOT01","1180","01-701-1180","Xanomeline High Dose",81,"Xanomeline High Dose",81,19401,19435,56,"<65",1,"WHITE",1,"M","N","Y","Y","Week 6",6,null,null,"",null,"DERIVED","Bilirubin 1.5 x ULN","BILIHY",4,"HYLAW",0,0,null,null,null,null,null,null,"","Normal to Normal",1,"","",null],
[623,"CDISCPILOT01","1180","01-701-1180","Xanomeline High Dose",81,"Xanomeline High Dose",81,19401,19435,56,"<65",1,"WHITE",1,"M","N","Y","Y","Week 6",6,null,null,"",null,"DERIVED","Transaminase 1.5 x ULN","TRANSHY",5,"HYLAW",0,0,null,null,null,null,null,null,"","Normal to Normal",1,"","",null],
[624,"CDISCPILOT01","1180","01-701-1180","Xanomeline High Dose",81,"Xanomeline High Dose",81,19401,19435,56,"<65",1,"WHITE",1,"M","N","Y","Y","Week 6",6,null,null,"",null,"DERIVED","Total Bili 1.5 x ULN and Transaminase 1.5 x ULN","HYLAW",6,"HYLAW",0,0,null,null,null,null,null,null,"","Normal to Normal",1,"","",null],
[625,"CDISCPILOT01","1181","01-701-1181","Xanomeline High Dose",81,"Xanomeline High Dose",81,19697,19701,79,"65-80",2,"WHITE",1,"F","N","Y","Y","Baseline",0,-9,19688,"SCREENING 1",1,"","Alanine Aminotransferase (U/L)","ALT",1,"CHEM",18,18,6,32,3,0.6,3,0.6,"Y","",null,"R2A1HI > 1.5","N",0],
[626,"CDISCPILOT01","1181","01-701-1181","Xanomeline High Dose",81,"Xanomeline High Dose",81,19697,19701,79,"65-80",2,"WHITE",1,"F","N","Y","Y","Baseline",0,-9,19688,"SCREENING 1",1,"","Aspartate Aminotransferase (U/L)","AST",2,"CHEM",20,20,9,34,2.2,0.6,2.2,0.6,"Y","",null,"R2A1HI > 1.5","N",0],
[627,"CDISCPILOT01","1181","01-701-1181","Xanomeline High Dose",81,"Xanomeline High Dose",81,19697,19701,79,"65-80",2,"WHITE",1,"F","N","Y","Y","Baseline",0,-9,19688,"SCREENING 1",1,"","Bilirubin (umol/L)","BILI",3,"CHEM",5.13,5.13,3,21,1.7,0.2,1.7,0.2,"Y","",null,"R2A1HI > 1.5","N",0],
[628,"CDISCPILOT01","1181","01-701-1181","Xanomeline High Dose",81,"Xanomeline High Dose",81,19697,19701,79,"65-80",2,"WHITE",1,"F","N","Y","Y","Baseline",0,null,null,"",null,"DERIVED","Bilirubin 1.5 x ULN","BILIHY",4,"HYLAW",0,0,null,null,null,null,null,null,"Y","Normal to Normal",1,"","",null],
[629,"CDISCPILOT01","1181","01-701-1181","Xanomeline High Dose",81,"Xanomeline High Dose",81,19697,19701,79,"65-80",2,"WHITE",1,"F","N","Y","Y","Baseline",0,null,null,"",null,"DERIVED","Transaminase 1.5 x ULN","TRANSHY",5,"HYLAW",0,0,null,null,null,null,null,null,"Y","Normal to Normal",1,"","",null],
[630,"CDISCPILOT01","1181","01-701-1181","Xanomeline High Dose",81,"Xanomeline High Dose",81,19697,19701,79,"65-80",2,"WHITE",1,"F","N","Y","Y","Baseline",0,null,null,"",null,"DERIVED","Total Bili 1.5 x ULN and Transaminase 1.5 x ULN","HYLAW",6,"HYLAW",0,0,null,null,null,null,null,null,"Y","Normal to Normal",1,"","",null],
[631,"CDISCPILOT01","1181","01-701-1181","Xanomeline High Dose",81,"Xanomeline High Dose",81,19697,19701,79,"65-80",2,"WHITE",1,"F","N","Y","Y","Week 2",2,8,19704,"WEEK 2",4,"","Alanine Aminotransferase (U/L)","ALT",1,"CHEM",14,18,6,32,2.3,0.4,3,0.6,"","",null,"R2A1HI > 1.5","N",0],
[632,"CDISCPILOT01","1181","01-701-1181","Xanomeline High Dose",81,"Xanomeline High Dose",81,19697,19701,79,"65-80",2,"WHITE",1,"F","N","Y","Y","Week 2",2,8,19704,"WEEK 2",4,"","Aspartate Aminotransferase (U/L)","AST",2,"CHEM",23,20,9,34,2.6,0.7,2.2,0.6,"","",null,"R2A1HI > 1.5","N",0],
[633,"CDISCPILOT01","1181","01-701-1181","Xanomeline High Dose",81,"Xanomeline High Dose",81,19697,19701,79,"65-80",2,"WHITE",1,"F","N","Y","Y","Week 2",2,8,19704,"WEEK 2",4,"","Bilirubin (umol/L)","BILI",3,"CHEM",8.55,5.13,3,21,2.8,0.4,1.7,0.2,"","",null,"R2A1HI > 1.5","N",0],
[634,"CDISCPILOT01","1181","01-701-1181","Xanomeline High Dose",81,"Xanomeline High Dose",81,19697,19701,79,"65-80",2,"WHITE",1,"F","N","Y","Y","Week 2",2,null,null,"",null,"DERIVED","Bilirubin 1.5 x ULN","BILIHY",4,"HYLAW",0,0,null,null,null,null,null,null,"","Normal to Normal",1,"","",null],
[635,"CDISCPILOT01","1181","01-701-1181","Xanomeline High Dose",81,"Xanomeline High Dose",81,19697,19701,79,"65-80",2,"WHITE",1,"F","N","Y","Y","Week 2",2,null,null,"",null,"DERIVED","Transaminase 1.5 x ULN","TRANSHY",5,"HYLAW",0,0,null,null,null,null,null,null,"","Normal to Normal",1,"","",null],
[636,"CDISCPILOT01","1181","01-701-1181","Xanomeline High Dose",81,"Xanomeline High Dose",81,19697,19701,79,"65-80",2,"WHITE",1,"F","N","Y","Y","Week 2",2,null,null,"",null,"DERIVED","Total Bili 1.5 x ULN and Transaminase 1.5 x ULN","HYLAW",6,"HYLAW",0,0,null,null,null,null,null,null,"","Normal to Normal",1,"","",null],
[637,"CDISCPILOT01","1188","01-701-1188","Xanomeline Low Dose",54,"Xanomeline Low Dose",54,19404,19441,71,"65-80",2,"WHITE",1,"M","N","Y","Y","Baseline",0,-12,19392,"SCREENING 1",1,"","Alanine Aminotransferase (U/L)","ALT",1,"CHEM",21,21,6,35,3.5,0.6,3.5,0.6,"Y","",null,"R2A1HI > 1.5","N",0],
[638,"CDISCPILOT01","1188","01-701-1188","Xanomeline Low Dose",54,"Xanomeline Low Dose",54,19404,19441,71,"65-80",2,"WHITE",1,"M","N","Y","Y","Baseline",0,-12,19392,"SCREENING 1",1,"","Aspartate Aminotransferase (U/L)","AST",2,"CHEM",17,17,11,36,1.5,0.5,1.5,0.5,"Y","",null,"R2A1HI > 1.5","N",0],
[639,"CDISCPILOT01","1188","01-701-1188","Xanomeline Low Dose",54,"Xanomeline Low Dose",54,19404,19441,71,"65-80",2,"WHITE",1,"M","N","Y","Y","Baseline",0,-12,19392,"SCREENING 1",1,"","Bilirubin (umol/L)","BILI",3,"CHEM",6.84,6.84,3,21,2.3,0.3,2.3,0.3,"Y","",null,"R2A1HI > 1.5","N",0],
[640,"CDISCPILOT01","1188","01-701-1188","Xanomeline Low Dose",54,"Xanomeline Low Dose",54,19404,19441,71,"65-80",2,"WHITE",1,"M","N","Y","Y","Baseline",0,null,null,"",null,"DERIVED","Bilirubin 1.5 x ULN","BILIHY",4,"HYLAW",0,0,null,null,null,null,null,null,"Y","Normal to Normal",1,"","",null],
[641,"CDISCPILOT01","1188","01-701-1188","Xanomeline Low Dose",54,"Xanomeline Low Dose",54,19404,19441,71,"65-80",2,"WHITE",1,"M","N","Y","Y","Baseline",0,null,null,"",null,"DERIVED","Transaminase 1.5 x ULN","TRANSHY",5,"HYLAW",0,0,null,null,null,null,null,null,"Y","Normal to Normal",1,"","",null],
[642,"CDISCPILOT01","1188","01-701-1188","Xanomeline Low Dose",54,"Xanomeline Low Dose",54,19404,19441,71,"65-80",2,"WHITE",1,"M","N","Y","Y","Baseline",0,null,null,"",null,"DERIVED","Total Bili 1.5 x ULN and Transaminase 1.5 x ULN","HYLAW",6,"HYLAW",0,0,null,null,null,null,null,null,"Y","Normal to Normal",1,"","",null],
[643,"CDISCPILOT01","1188","01-701-1188","Xanomeline Low Dose",54,"Xanomeline Low Dose",54,19404,19441,71,"65-80",2,"WHITE",1,"M","N","Y","Y","Week 2",2,16,19419,"WEEK 2",4,"","Alanine Aminotransferase (U/L)","ALT",1,"CHEM",29,21,6,35,4.8,0.8,3.5,0.6,"","",null,"R2A1HI > 1.5","N",0],
[644,"CDISCPILOT01","1188","01-701-1188","Xanomeline Low Dose",54,"Xanomeline Low Dose",54,19404,19441,71,"65-80",2,"WHITE",1,"M","N","Y","Y","Week 2",2,16,19419,"WEEK 2",4,"","Aspartate Aminotransferase (U/L)","AST",2,"CHEM",20,17,11,36,1.8,0.6,1.5,0.5,"","",null,"R2A1HI > 1.5","N",0],
[645,"CDISCPILOT01","1188","01-701-1188","Xanomeline Low Dose",54,"Xanomeline Low Dose",54,19404,19441,71,"65-80",2,"WHITE",1,"M","N","Y","Y","Week 2",2,16,19419,"WEEK 2",4,"","Bilirubin (umol/L)","BILI",3,"CHEM",8.55,6.84,3,21,2.8,0.4,2.3,0.3,"","",null,"R2A1HI > 1.5","N",0],
[646,"CDISCPILOT01","1188","01-701-1188","Xanomeline Low Dose",54,"Xanomeline Low Dose",54,19404,19441,71,"65-80",2,"WHITE",1,"M","N","Y","Y","Week 2",2,null,null,"",null,"DERIVED","Bilirubin 1.5 x ULN","BILIHY",4,"HYLAW",0,0,null,null,null,null,null,null,"","Normal to Normal",1,"","",null],
[647,"CDISCPILOT01","1188","01-701-1188","Xanomeline Low Dose",54,"Xanomeline Low Dose",54,19404,19441,71,"65-80",2,"WHITE",1,"M","N","Y","Y","Week 2",2,null,null,"",null,"DERIVED","Transaminase 1.5 x ULN","TRANSHY",5,"HYLAW",0,0,null,null,null,null,null,null,"","Normal to Normal",1,"","",null],
[648,"CDISCPILOT01","1188","01-701-1188","Xanomeline Low Dose",54,"Xanomeline Low Dose",54,19404,19441,71,"65-80",2,"WHITE",1,"M","N","Y","Y","Week 2",2,null,null,"",null,"DERIVED","Total Bili 1.5 x ULN and Transaminase 1.5 x ULN","HYLAW",6,"HYLAW",0,0,null,null,null,null,null,null,"","Normal to Normal",1,"","",null],
[649,"CDISCPILOT01","1188","01-701-1188","Xanomeline Low Dose",54,"Xanomeline Low Dose",54,19404,19441,71,"65-80",2,"WHITE",1,"M","N","Y","Y","Week 4",4,30,19433,"WEEK 4",5,"","Alanine Aminotransferase (U/L)","ALT",1,"CHEM",23,21,6,35,3.8,0.7,3.5,0.6,"","",null,"R2A1HI > 1.5","N",0],
[650,"CDISCPILOT01","1188","01-701-1188","Xanomeline Low Dose",54,"Xanomeline Low Dose",54,19404,19441,71,"65-80",2,"WHITE",1,"M","N","Y","Y","Week 4",4,30,19433,"WEEK 4",5,"","Aspartate Aminotransferase (U/L)","AST",2,"CHEM",17,17,11,36,1.5,0.5,1.5,0.5,"","",null,"R2A1HI > 1.5","N",0],
[651,"CDISCPILOT01","1188","01-701-1188","Xanomeline Low Dose",54,"Xanomeline Low Dose",54,19404,19441,71,"65-80",2,"WHITE",1,"M","N","Y","Y","Week 4",4,30,19433,"WEEK 4",5,"","Bilirubin (umol/L)","BILI",3,"CHEM",8.55,6.84,3,21,2.8,0.4,2.3,0.3,"","",null,"R2A1HI > 1.5","N",0],
[652,"CDISCPILOT01","1188","01-701-1188","Xanomeline Low Dose",54,"Xanomeline Low Dose",54,19404,19441,71,"65-80",2,"WHITE",1,"M","N","Y","Y","Week 4",4,null,null,"",null,"DERIVED","Bilirubin 1.5 x ULN","BILIHY",4,"HYLAW",0,0,null,null,null,null,null,null,"","Normal to Normal",1,"","",null],
[653,"CDISCPILOT01","1188","01-701-1188","Xanomeline Low Dose",54,"Xanomeline Low Dose",54,19404,19441,71,"65-80",2,"WHITE",1,"M","N","Y","Y","Week 4",4,null,null,"",null,"DERIVED","Transaminase 1.5 x ULN","TRANSHY",5,"HYLAW",0,0,null,null,null,null,null,null,"","Normal to Normal",1,"","",null],
[654,"CDISCPILOT01","1188","01-701-1188","Xanomeline Low Dose",54,"Xanomeline Low Dose",54,19404,19441,71,"65-80",2,"WHITE",1,"M","N","Y","Y","Week 4",4,null,null,"",null,"DERIVED","Total Bili 1.5 x ULN and Transaminase 1.5 x ULN","HYLAW",6,"HYLAW",0,0,null,null,null,null,null,null,"","Normal to Normal",1,"","",null],
[655,"CDISCPILOT01","1188","01-701-1188","Xanomeline Low Dose",54,"Xanomeline Low Dose",54,19404,19441,71,"65-80",2,"WHITE",1,"M","N","Y","Y","Week 6",6,39,19442,"WEEK 6",7,"","Alanine Aminotransferase (U/L)","ALT",1,"CHEM",19,21,6,35,3.2,0.5,3.5,0.6,"","",null,"R2A1HI > 1.5","N",0],
[656,"CDISCPILOT01","1188","01-701-1188","Xanomeline Low Dose",54,"Xanomeline Low Dose",54,19404,19441,71,"65-80",2,"WHITE",1,"M","N","Y","Y","Week 6",6,39,19442,"WEEK 6",7,"","Aspartate Aminotransferase (U/L)","AST",2,"CHEM",14,17,11,36,1.3,0.4,1.5,0.5,"","",null,"R2A1HI > 1.5","N",0],
[657,"CDISCPILOT01","1188","01-701-1188","Xanomeline Low Dose",54,"Xanomeline Low Dose",54,19404,19441,71,"65-80",2,"WHITE",1,"M","N","Y","Y","Week 6",6,39,19442,"WEEK 6",7,"","Bilirubin (umol/L)","BILI",3,"CHEM",6.84,6.84,3,21,2.3,0.3,2.3,0.3,"","",null,"R2A1HI > 1.5","N",0],
[658,"CDISCPILOT01","1188","01-701-1188","Xanomeline Low Dose",54,"Xanomeline Low Dose",54,19404,19441,71,"65-80",2,"WHITE",1,"M","N","Y","Y","Week 6",6,null,null,"",null,"DERIVED","Bilirubin 1.5 x ULN","BILIHY",4,"HYLAW",0,0,null,null,null,null,null,null,"","Normal to Normal",1,"","",null],
[659,"CDISCPILOT01","1188","01-701-1188","Xanomeline Low Dose",54,"Xanomeline Low Dose",54,19404,19441,71,"65-80",2,"WHITE",1,"M","N","Y","Y","Week 6",6,null,null,"",null,"DERIVED","Transaminase 1.5 x ULN","TRANSHY",5,"HYLAW",0,0,null,null,null,null,null,null,"","Normal to Normal",1,"","",null],
[660,"CDISCPILOT01","1188","01-701-1188","Xanomeline Low Dose",54,"Xanomeline Low Dose",54,19404,19441,71,"65-80",2,"WHITE",1,"M","N","Y","Y","Week 6",6,null,null,"",null,"DERIVED","Total Bili 1.5 x ULN and Transaminase 1.5 x ULN","HYLAW",6,"HYLAW",0,0,null,null,null,null,null,null,"","Normal to Normal",1,"","",null],
[661,"CDISCPILOT01","1192","01-701-1192","Xanomeline Low Dose",54,"Xanomeline Low Dose",54,19196,19378,80,"65-80",2,"WHITE",1,"F","Y","","Y","Baseline",0,-14,19182,"SCREENING 1",1,"","Alanine Aminotransferase (U/L)","ALT",1,"CHEM",17,17,6,32,2.8,0.5,2.8,0.5,"Y","",null,"R2A1HI > 1.5","N",0],
[662,"CDISCPILOT01","1192","01-701-1192","Xanomeline Low Dose",54,"Xanomeline Low Dose",54,19196,19378,80,"65-80",2,"WHITE",1,"F","Y","","Y","Baseline",0,-14,19182,"SCREENING 1",1,"","Aspartate Aminotransferase (U/L)","AST",2,"CHEM",18,18,9,34,2,0.5,2,0.5,"Y","",null,"R2A1HI > 1.5","N",0],
[663,"CDISCPILOT01","1192","01-701-1192","Xanomeline Low Dose",54,"Xanomeline Low Dose",54,19196,19378,80,"65-80",2,"WHITE",1,"F","Y","","Y","Baseline",0,-14,19182,"SCREENING 1",1,"","Bilirubin (umol/L)","BILI",3,"CHEM",11.97,11.97,3,21,4,0.6,4,0.6,"Y","",null,"R2A1HI > 1.5","N",0],
[664,"CDISCPILOT01","1192","01-701-1192","Xanomeline Low Dose",54,"Xanomeline Low Dose",54,19196,19378,80,"65-80",2,"WHITE",1,"F","Y","","Y","Baseline",0,null,null,"",null,"DERIVED","Bilirubin 1.5 x ULN","BILIHY",4,"HYLAW",0,0,null,null,null,null,null,null,"Y","Normal to Normal",1,"","",null],
[665,"CDISCPILOT01","1192","01-701-1192","Xanomeline Low Dose",54,"Xanomeline Low Dose",54,19196,19378,80,"65-80",2,"WHITE",1,"F","Y","","Y","Baseline",0,null,null,"",null,"DERIVED","Transaminase 1.5 x ULN","TRANSHY",5,"HYLAW",0,0,null,null,null,null,null,null,"Y","Normal to Normal",1,"","",null],
[666,"CDISCPILOT01","1192","01-701-1192","Xanomeline Low Dose",54,"Xanomeline Low Dose",54,19196,19378,80,"65-80",2,"WHITE",1,"F","Y","","Y","Baseline",0,null,null,"",null,"DERIVED","Total Bili 1.5 x ULN and Transaminase 1.5 x ULN","HYLAW",6,"HYLAW",0,0,null,null,null,null,null,null,"Y","Normal to Normal",1,"","",null],
[667,"CDISCPILOT01","1192","01-701-1192","Xanomeline Low Dose",54,"Xanomeline Low Dose",54,19196,19378,80,"65-80",2,"WHITE",1,"F","Y","","Y","Week 2",2,17,19212,"WEEK 2",4,"","Alanine Aminotransferase (U/L)","ALT",1,"CHEM",15,17,6,32,2.5,0.5,2.8,0.5,"","",null,"R2A1HI > 1.5","N",0],
[668,"CDISCPILOT01","1192","01-701-1192","Xanomeline Low Dose",54,"Xanomeline Low Dose",54,19196,19378,80,"65-80",2,"WHITE",1,"F","Y","","Y","Week 2",2,17,19212,"WEEK 2",4,"","Aspartate Aminotransferase (U/L)","AST",2,"CHEM",20,18,9,34,2.2,0.6,2,0.5,"","",null,"R2A1HI > 1.5","N",0],
[669,"CDISCPILOT01","1192","01-701-1192","Xanomeline Low Dose",54,"Xanomeline Low Dose",54,19196,19378,80,"65-80",2,"WHITE",1,"F","Y","","Y","Week 2",2,17,19212,"WEEK 2",4,"","Bilirubin (umol/L)","BILI",3,"CHEM",11.97,11.97,3,21,4,0.6,4,0.6,"","",null,"R2A1HI > 1.5","N",0],
[670,"CDISCPILOT01","1192","01-701-1192","Xanomeline Low Dose",54,"Xanomeline Low Dose",54,19196,19378,80,"65-80",2,"WHITE",1,"F","Y","","Y","Week 2",2,null,null,"",null,"DERIVED","Bilirubin 1.5 x ULN","BILIHY",4,"HYLAW",0,0,null,null,null,null,null,null,"","Normal to Normal",1,"","",null],
[671,"CDISCPILOT01","1192","01-701-1192","Xanomeline Low Dose",54,"Xanomeline Low Dose",54,19196,19378,80,"65-80",2,"WHITE",1,"F","Y","","Y","Week 2",2,null,null,"",null,"DERIVED","Transaminase 1.5 x ULN","TRANSHY",5,"HYLAW",0,0,null,null,null,null,null,null,"","Normal to Normal",1,"","",null],
[672,"CDISCPILOT01","1192","01-701-1192","Xanomeline Low Dose",54,"Xanomeline Low Dose",54,19196,19378,80,"65-80",2,"WHITE",1,"F","Y","","Y","Week 2",2,null,null,"",null,"DERIVED","Total Bili 1.5 x ULN and Transaminase 1.5 x ULN","HYLAW",6,"HYLAW",0,0,null,null,null,null,null,null,"","Normal to Normal",1,"","",null],
[673,"CDISCPILOT01","1192","01-701-1192","Xanomeline Low Dose",54,"Xanomeline Low Dose",54,19196,19378,80,"65-80",2,"WHITE",1,"F","Y","","Y","Week 4",4,31,19226,"WEEK 4",5,"","Alanine Aminotransferase (U/L)","ALT",1,"CHEM",14,17,6,32,2.3,0.4,2.8,0.5,"","",null,"R2A1HI > 1.5","N",0],
[674,"CDISCPILOT01","1192","01-701-1192","Xanomeline Low Dose",54,"Xanomeline Low Dose",54,19196,19378,80,"65-80",2,"WHITE",1,"F","Y","","Y","Week 4",4,31,19226,"WEEK 4",5,"","Aspartate Aminotransferase (U/L)","AST",2,"CHEM",20,18,9,34,2.2,0.6,2,0.5,"","",null,"R2A1HI > 1.5","N",0],
[675,"CDISCPILOT01","1192","01-701-1192","Xanomeline Low Dose",54,"Xanomeline Low Dose",54,19196,19378,80,"65-80",2,"WHITE",1,"F","Y","","Y","Week 4",4,31,19226,"WEEK 4",5,"","Bilirubin (umol/L)","BILI",3,"CHEM",10.26,11.97,3,21,3.4,0.5,4,0.6,"","",null,"R2A1HI > 1.5","N",0],
[676,"CDISCPILOT01","1192","01-701-1192","Xanomeline Low Dose",54,"Xanomeline Low Dose",54,19196,19378,80,"65-80",2,"WHITE",1,"F","Y","","Y","Week 4",4,null,null,"",null,"DERIVED","Bilirubin 1.5 x ULN","BILIHY",4,"HYLAW",0,0,null,null,null,null,null,null,"","Normal to Normal",1,"","",null],
[677,"CDISCPILOT01","1192","01-701-1192","Xanomeline Low Dose",54,"Xanomeline Low Dose",54,19196,19378,80,"65-80",2,"WHITE",1,"F","Y","","Y","Week 4",4,null,null,"",null,"DERIVED","Transaminase 1.5 x ULN","TRANSHY",5,"HYLAW",0,0,null,null,null,null,null,null,"","Normal to Normal",1,"","",null],
[678,"CDISCPILOT01","1192","01-701-1192","Xanomeline Low Dose",54,"Xanomeline Low Dose",54,19196,19378,80,"65-80",2,"WHITE",1,"F","Y","","Y","Week 4",4,null,null,"",null,"DERIVED","Total Bili 1.5 x ULN and Transaminase 1.5 x ULN","HYLAW",6,"HYLAW",0,0,null,null,null,null,null,null,"","Normal to Normal",1,"","",null],
[679,"CDISCPILOT01","1192","01-701-1192","Xanomeline Low Dose",54,"Xanomeline Low Dose",54,19196,19378,80,"65-80",2,"WHITE",1,"F","Y","","Y","Week 6",6,45,19240,"WEEK 6",7,"","Alanine Aminotransferase (U/L)","ALT",1,"CHEM",12,17,6,32,2,0.4,2.8,0.5,"","",null,"R2A1HI > 1.5","N",0],
[680,"CDISCPILOT01","1192","01-701-1192","Xanomeline Low Dose",54,"Xanomeline Low Dose",54,19196,19378,80,"65-80",2,"WHITE",1,"F","Y","","Y","Week 6",6,45,19240,"WEEK 6",7,"","Aspartate Aminotransferase (U/L)","AST",2,"CHEM",15,18,9,34,1.7,0.4,2,0.5,"","",null,"R2A1HI > 1.5","N",0],
[681,"CDISCPILOT01","1192","01-701-1192","Xanomeline Low Dose",54,"Xanomeline Low Dose",54,19196,19378,80,"65-80",2,"WHITE",1,"F","Y","","Y","Week 6",6,45,19240,"WEEK 6",7,"","Bilirubin (umol/L)","BILI",3,"CHEM",8.55,11.97,3,21,2.8,0.4,4,0.6,"","",null,"R2A1HI > 1.5","N",0],
[682,"CDISCPILOT01","1192","01-701-1192","Xanomeline Low Dose",54,"Xanomeline Low Dose",54,19196,19378,80,"65-80",2,"WHITE",1,"F","Y","","Y","Week 6",6,null,null,"",null,"DERIVED","Bilirubin 1.5 x ULN","BILIHY",4,"HYLAW",0,0,null,null,null,null,null,null,"","Normal to Normal",1,"","",null],
[683,"CDISCPILOT01","1192","01-701-1192","Xanomeline Low Dose",54,"Xanomeline Low Dose",54,19196,19378,80,"65-80",2,"WHITE",1,"F","Y","","Y","Week 6",6,null,null,"",null,"DERIVED","Transaminase 1.5 x ULN","TRANSHY",5,"HYLAW",0,0,null,null,null,null,null,null,"","Normal to Normal",1,"","",null],
[684,"CDISCPILOT01","1192","01-701-1192","Xanomeline Low Dose",54,"Xanomeline Low Dose",54,19196,19378,80,"65-80",2,"WHITE",1,"F","Y","","Y","Week 6",6,null,null,"",null,"DERIVED","Total Bili 1.5 x ULN and Transaminase 1.5 x ULN","HYLAW",6,"HYLAW",0,0,null,null,null,null,null,null,"","Normal to Normal",1,"","",null],
[685,"CDISCPILOT01","1192","01-701-1192","Xanomeline Low Dose",54,"Xanomeline Low Dose",54,19196,19378,80,"65-80",2,"WHITE",1,"F","Y","","Y","Week 8",8,64,19259,"WEEK 8",8,"","Alanine Aminotransferase (U/L)","ALT",1,"CHEM",19,17,6,32,3.2,0.6,2.8,0.5,"","",null,"R2A1HI > 1.5","N",0],
