{
"clinicalData":{"studyOID":"CDISCPILOT01","metaDataVersionOID":"CDISC.ADaM.2.1","itemGroupData": {"ADQSCIBC":{"records":730,"name":"ADQSCIBC","label":"CIBIC+ Analysis","items":[{"OID": "ITEMGROUPDATASEQ", "name": "ITEMGROUPDATASEQ", "label": "Record Identifier", "type": "integer"},{"OID": "ADQSCIBC.STUDYID", "name":"STUDYID", "label":"Study Identifier", "type":"string", "length":12},{"OID": "ADQSCIBC.SITEID", "name":"SITEID", "label":"Study Site Identifier", "type":"string", "length":3},{"OID": "ADQSCIBC.SITEGR1", "name":"SITEGR1", "label":"Pooled Site Group 1", "type":"string", "length":3},{"OID": "ADQSCIBC.USUBJID", "name":"USUBJID", "label":"Unique Subject Identifier", "type":"string", "length":11},{"OID": "ADQSCIBC.TRTSDT", "name":"TRTSDT", "label":"Date of First Exposure to Treatment", "type":"integer", "length":8},{"OID": "ADQSCIBC.TRTEDT", "name":"TRTEDT", "label":"Date of Last Exposure to Treatment", "type":"integer", "length":8},{"OID": "ADQSCIBC.TRTP", "name":"TRTP", "label":"Planned Treatment", "type":"string", "length":20},{"OID": "ADQSCIBC.TRTPN", "name":"TRTPN", "label":"Planned Treatment (N)", "type":"integer", "length":8},{"OID": "ADQSCIBC.AGE", "name":"AGE", "label":"Age", "type":"integer", "length":8},{"OID": "ADQSCIBC.AGEGR1", "name":"AGEGR1", "label":"Pooled Age Group 1", "type":"string", "length":5},{"OID": "ADQSCIBC.AGEGR1N", "name":"AGEGR1N", "label":"Pooled Age Group 1 (N)", "type":"integer", "length":8},{"OID": "ADQSCIBC.RACE", "name":"RACE", "label":"Race", "type":"string", "length":32},{"OID": "ADQSCIBC.RACEN", "name":"RACEN", "label":"Race (N)", "type":"integer", "length":8},{"OID": "ADQSCIBC.SEX", "name":"SEX", "label":"Sex", "type":"string", "length":1},{"OID": "ADQSCIBC.ITTFL", "name":"ITTFL", "label":"Intent-to-Treat Population Flag", "type":"string", "length":1},{"OID": "ADQSCIBC.EFFFL", "name":"EFFFL", "label":"Efficacy Population Flag", "type":"string", "length":1},{"OID": "ADQSCIBC.COMP24FL", "name":"COMP24FL", "label":"Completers of Week 24 Population Flag", "type":"string", "length":1},{"OID": "ADQSCIBC.AVISIT", "name":"AVISIT", "label":"Analysis Visit", "type":"string", "length":16},{"OID": "ADQSCIBC.AVISITN", "name":"AVISITN", "label":"Analysis Visit (N)", "type":"integer", "length":8, "fractionDigits":1},{"OID": "ADQSCIBC.VISIT", "name":"VISIT", "label":"Visit Name", "type":"string", "length":19},{"OID": "ADQSCIBC.VISITNUM", "name":"VISITNUM", "label":"Visit Number", "type":"float", "length":8, "fractionDigits":1},{"OID": "ADQSCIBC.ADY", "name":"ADY", "label":"Analysis Relative Day", "type":"integer", "length":8},{"OID": "ADQSCIBC.ADT", "name":"ADT", "label":"Analysis Date", "type":"integer", "length":8},{"OID": "ADQSCIBC.PARAMCD", "name":"PARAMCD", "label":"Parameter Code", "type":"string", "length":8},{"OID": "ADQSCIBC.PARAM", "name":"PARAM", "label":"Parameter", "type":"string", "length":100},{"OID": "ADQSCIBC.PARAMN", "name":"PARAMN", "label":"Parameter (N)", "type":"integer", "length":8},{"OID": "ADQSCIBC.AVAL", "name":"AVAL", "label":"Analysis Value", "type":"integer", "length":8},{"OID": "ADQSCIBC.ANL01FL", "name":"ANL01FL", "label":"Analysis Record Flag 01", "type":"string", "length":1},{"OID": "ADQSCIBC.DTYPE", "name":"DTYPE", "label":"Derivation Type", "type":"string", "length":7},{"OID": "ADQSCIBC.AWRANGE", "name":"AWRANGE", "label":"Analysis Window Valid Relative Range", "type":"string", "length":9},{"OID": "ADQSCIBC.AWTARGET", "name":"AWTARGET", "label":"Analysis Window Target", "type":"integer", "length":8},{"OID": "ADQSCIBC.AWTDIFF", "name":"AWTDIFF", "label":"Analysis Window Diff from Target", "type":"integer", "length":8},{"OID": "ADQSCIBC.AWLO", "name":"AWLO", "label":"Analysis Window Beginning Timepoint", "type":"integer", "length":8},{"OID": "ADQSCIBC.AWHI", "name":"AWHI", "label":"Analysis Window Ending Timepoint", "type":"integer", "length":8},{"OID": "ADQSCIBC.AWU", "name":"AWU", "label":"Analysis Window Unit", "type":"string", "length":4},{"OID": "ADQSCIBC.QSSEQ", "name":"QSSEQ", "label":"Sequence Number", "type":"integer", "length":8}],"itemData": [
[1,"CDISCPILOT01","701","701","01-701-1015",19725,19906,"Placebo",0,63,"<65",1,"WHITE",1,"F","Y","Y","Y","Week 8",8,"WEEK 8",8,63,19787,"CIBICVAL","CIBIC Score",1,4,"Y","","2-84",56,7,2,84,"DAYS",6001],
[2,"CDISCPILOT01","701","701","01-701-1015",19725,19906,"Placebo",0,63,"<65",1,"WHITE",1,"F","Y","Y","Y","Week 16",16,"WEEK 16",10,126,19850,"CIBICVAL","CIBIC Score",1,4,"Y","","85-140",112,14,85,140,"DAYS",6002],
[3,"CDISCPILOT01","701","701","01-701-1015",19725,19906,"Placebo",0,63,"<65",1,"WHITE",1,"F","Y","Y","Y","Week 24",24,"WEEK 24",12,168,19892,"CIBICVAL","CIBIC Score",1,4,"Y","",">140",168,0,141,null,"DAYS",6003],
[4,"CDISCPILOT01","701","701","01-701-1023",19210,19237,"Placebo",0,64,"<65",1,"WHITE",1,"M","Y","Y","N","Week 8",8,"WEEK 4",5,29,19238,"CIBICVAL","CIBIC Score",1,3,"Y","","2-84",56,27,2,84,"DAYS",6001],
[5,"CDISCPILOT01","701","701","01-701-1023",19210,19237,"Placebo",0,64,"<65",1,"WHITE",1,"M","Y","Y","N","Week 16",16,"WEEK 4",5,29,19238,"CIBICVAL","CIBIC Score",1,3,"Y","LOCF","85-140",112,83,85,140,"DAYS",6001],
[6,"CDISCPILOT01","701","701","01-701-1023",19210,19237,"Placebo",0,64,"<65",1,"WHITE",1,"M","Y","Y","N","Week 24",24,"RETRIEVAL",201,198,19407,"CIBICVAL","CIBIC Score",1,5,"Y","",">140",168,30,141,null,"DAYS",6002],
[7,"CDISCPILOT01","701","701","01-701-1028",19558,19737,"Xanomeline High Dose",81,71,"65-80",2,"WHITE",1,"M","Y","Y","Y","Week 8",8,"WEEK 8",8,54,19611,"CIBICVAL","CIBIC Score",1,4,"Y","","2-84",56,2,2,84,"DAYS",6001],
[8,"CDISCPILOT01","701","701","01-701-1028",19558,19737,"Xanomeline High Dose",81,71,"65-80",2,"WHITE",1,"M","Y","Y","Y","Week 16",16,"WEEK 16",10,111,19668,"CIBICVAL","CIBIC Score",1,4,"Y","","85-140",112,1,85,140,"DAYS",6002],
[9,"CDISCPILOT01","701","701","01-701-1028",19558,19737,"Xanomeline High Dose",81,71,"65-80",2,"WHITE",1,"M","Y","Y","Y","Week 24",24,"WEEK 24",12,172,19729,"CIBICVAL","CIBIC Score",1,4,"Y","",">140",168,4,141,null,"DAYS",6003],
[10,"CDISCPILOT01","701","701","01-701-1033",19800,19813,"Xanomeline Low Dose",54,74,"65-80",2,"WHITE",1,"M","Y","Y","N","Week 8",8,"WEEK 4",5,28,19827,"CIBICVAL","CIBIC Score",1,4,"Y","","2-84",56,28,2,84,"DAYS",6001],
[11,"CDISCPILOT01","701","701","01-701-1033",19800,19813,"Xanomeline Low Dose",54,74,"65-80",2,"WHITE",1,"M","Y","Y","N","Week 16",16,"WEEK 4",5,28,19827,"CIBICVAL","CIBIC Score",1,4,"Y","LOCF","85-140",112,84,85,140,"DAYS",6001],
[12,"CDISCPILOT01","701","701","01-701-1033",19800,19813,"Xanomeline Low Dose",54,74,"65-80",2,"WHITE",1,"M","Y","Y","N","Week 24",24,"RETRIEVAL",201,182,19981,"CIBICVAL","CIBIC Score",1,4,"Y","",">140",168,14,141,null,"DAYS",6002],
[13,"CDISCPILOT01","701","701","01-701-1034",19905,20087,"Xanomeline High Dose",81,77,"65-80",2,"WHITE",1,"F","Y","Y","Y","Week 8",8,"WEEK 8",8,57,19961,"CIBICVAL","CIBIC Score",1,4,"Y","","2-84",56,1,2,84,"DAYS",6001],
[14,"CDISCPILOT01","701","701","01-701-1034",19905,20087,"Xanomeline High Dose",81,77,"65-80",2,"WHITE",1,"F","Y","Y","Y","Week 16",16,"WEEK 16",10,113,20017,"CIBICVAL","CIBIC Score",1,3,"Y","","85-140",112,1,85,140,"DAYS",6002],
[15,"CDISCPILOT01","701","701","01-701-1034",19905,20087,"Xanomeline High Dose",81,77,"65-80",2,"WHITE",1,"F","Y","Y","Y","Week 24",24,"WEEK 24",12,170,20074,"CIBICVAL","CIBIC Score",1,4,"Y","",">140",168,2,141,null,"DAYS",6003],
[16,"CDISCPILOT01","701","701","01-701-1047",19401,19426,"Placebo",0,85,">80",3,"WHITE",1,"F","Y","Y","N","Week 8",8,"AMBUL ECG REMOVAL",6,46,19446,"CIBICVAL","CIBIC Score",1,4,"Y","","2-84",56,10,2,84,"DAYS",6001],
[17,"CDISCPILOT01","701","701","01-701-1047",19401,19426,"Placebo",0,85,">80",3,"WHITE",1,"F","Y","Y","N","Week 16",16,"AMBUL ECG REMOVAL",6,46,19446,"CIBICVAL","CIBIC Score",1,4,"Y","LOCF","85-140",112,66,85,140,"DAYS",6001],
[18,"CDISCPILOT01","701","701","01-701-1047",19401,19426,"Placebo",0,85,">80",3,"WHITE",1,"F","Y","Y","N","Week 24",24,"RETRIEVAL",201,167,19567,"CIBICVAL","CIBIC Score",1,5,"Y","",">140",168,1,141,null,"DAYS",6002],
[19,"CDISCPILOT01","701","701","01-701-1097",19724,19913,"Xanomeline Low Dose",54,68,"65-80",2,"WHITE",1,"M","Y","Y","Y","Week 8",8,"WEEK 8",8,57,19780,"CIBICVAL","CIBIC Score",1,3,"Y","","2-84",56,1,2,84,"DAYS",6001],
[20,"CDISCPILOT01","701","701","01-701-1097",19724,19913,"Xanomeline Low Dose",54,68,"65-80",2,"WHITE",1,"M","Y","Y","Y","Week 16",16,"WEEK 16",10,113,19836,"CIBICVAL","CIBIC Score",1,4,"Y","","85-140",112,1,85,140,"DAYS",6002],
[21,"CDISCPILOT01","701","701","01-701-1097",19724,19913,"Xanomeline Low Dose",54,68,"65-80",2,"WHITE",1,"M","Y","Y","Y","Week 24",24,"WEEK 24",12,169,19892,"CIBICVAL","CIBIC Score",1,3,"Y","",">140",168,1,141,null,"DAYS",6003],
[22,"CDISCPILOT01","701","701","01-701-1111",19243,19252,"Xanomeline Low Dose",54,81,">80",3,"WHITE",1,"F","Y","Y","N","Week 8",8,"WEEK 2",4,11,19253,"CIBICVAL","CIBIC Score",1,4,"Y","","2-84",56,45,2,84,"DAYS",6001],
[23,"CDISCPILOT01","701","701","01-701-1111",19243,19252,"Xanomeline Low Dose",54,81,">80",3,"WHITE",1,"F","Y","Y","N","Week 16",16,"WEEK 2",4,11,19253,"CIBICVAL","CIBIC Score",1,4,"Y","LOCF","85-140",112,101,85,140,"DAYS",6001],
[24,"CDISCPILOT01","701","701","01-701-1111",19243,19252,"Xanomeline Low Dose",54,81,">80",3,"WHITE",1,"F","Y","Y","N","Week 24",24,"RETRIEVAL",201,169,19411,"CIBICVAL","CIBIC Score",1,5,"Y","",">140",168,1,141,null,"DAYS",6002],
[25,"CDISCPILOT01","701","701","01-701-1115",19327,19381,"Xanomeline Low Dose",54,84,">80",3,"WHITE",1,"M","Y","Y","N","Week 8",8,"WEEK 8",8,55,19381,"CIBICVAL","CIBIC Score",1,4,"Y","","2-84",56,1,2,84,"DAYS",6001],
[26,"CDISCPILOT01","701","701","01-701-1115",19327,19381,"Xanomeline Low Dose",54,84,">80",3,"WHITE",1,"M","Y","Y","N","Week 16",16,"WEEK 8",8,55,19381,"CIBICVAL","CIBIC Score",1,4,"Y","LOCF","85-140",112,57,85,140,"DAYS",6001],
[27,"CDISCPILOT01","701","701","01-701-1115",19327,19381,"Xanomeline Low Dose",54,84,">80",3,"WHITE",1,"M","Y","Y","N","Week 24",24,"RETRIEVAL",201,172,19498,"CIBICVAL","CIBIC Score",1,5,"Y","",">140",168,4,141,null,"DAYS",6002],
[28,"CDISCPILOT01","701","701","01-701-1118",19794,19975,"Placebo",0,52,"<65",1,"WHITE",1,"M","Y","Y","Y","Week 8",8,"WEEK 8",8,58,19851,"CIBICVAL","CIBIC Score",1,4,"Y","","2-84",56,2,2,84,"DAYS",6001],
[29,"CDISCPILOT01","701","701","01-701-1118",19794,19975,"Placebo",0,52,"<65",1,"WHITE",1,"M","Y","Y","Y","Week 16",16,"WEEK 16",10,113,19906,"CIBICVAL","CIBIC Score",1,4,"Y","","85-140",112,1,85,140,"DAYS",6002],
[30,"CDISCPILOT01","701","701","01-701-1118",19794,19975,"Placebo",0,52,"<65",1,"WHITE",1,"M","Y","Y","Y","Week 24",24,"WEEK 24",12,169,19962,"CIBICVAL","CIBIC Score",1,4,"Y","",">140",168,1,141,null,"DAYS",6003],
[31,"CDISCPILOT01","701","701","01-701-1130",19769,19951,"Placebo",0,84,">80",3,"WHITE",1,"M","Y","Y","Y","Week 8",8,"WEEK 8",8,57,19825,"CIBICVAL","CIBIC Score",1,3,"Y","","2-84",56,1,2,84,"DAYS",6001],
[32,"CDISCPILOT01","701","701","01-701-1130",19769,19951,"Placebo",0,84,">80",3,"WHITE",1,"M","Y","Y","Y","Week 16",16,"WEEK 16",10,113,19881,"CIBICVAL","CIBIC Score",1,3,"Y","","85-140",112,1,85,140,"DAYS",6002],
[33,"CDISCPILOT01","701","701","01-701-1130",19769,19951,"Placebo",0,84,">80",3,"WHITE",1,"M","Y","Y","Y","Week 24",24,"WEEK 24",12,169,19937,"CIBICVAL","CIBIC Score",1,3,"Y","",">140",168,1,141,null,"DAYS",6003],
[34,"CDISCPILOT01","701","701","01-701-1133",19294,19476,"Xanomeline High Dose",81,81,">80",3,"WHITE",1,"F","Y","Y","Y","Week 8",8,"WEEK 8",8,58,19351,"CIBICVAL","CIBIC Score",1,4,"Y","","2-84",56,2,2,84,"DAYS",6001],
[35,"CDISCPILOT01","701","701","01-701-1133",19294,19476,"Xanomeline High Dose",81,81,">80",3,"WHITE",1,"F","Y","Y","Y","Week 16",16,"WEEK 16",10,114,19407,"CIBICVAL","CIBIC Score",1,5,"Y","","85-140",112,2,85,140,"DAYS",6002],
[36,"CDISCPILOT01","701","701","01-701-1133",19294,19476,"Xanomeline High Dose",81,81,">80",3,"WHITE",1,"F","Y","Y","Y","Week 24",24,"WEEK 24",12,173,19466,"CIBICVAL","CIBIC Score",1,5,"Y","",">140",168,5,141,null,"DAYS",6003],
[37,"CDISCPILOT01","701","701","01-701-1146",19498,19535,"Xanomeline High Dose",81,75,"65-80",2,"WHITE",1,"F","Y","Y","N","Week 8",8,"WEEK 6",7,42,19539,"CIBICVAL","CIBIC Score",1,4,"Y","","2-84",56,14,2,84,"DAYS",6001],
[38,"CDISCPILOT01","701","701","01-701-1146",19498,19535,"Xanomeline High Dose",81,75,"65-80",2,"WHITE",1,"F","Y","Y","N","Week 16",16,"WEEK 6",7,42,19539,"CIBICVAL","CIBIC Score",1,4,"Y","LOCF","85-140",112,70,85,140,"DAYS",6001],
[39,"CDISCPILOT01","701","701","01-701-1146",19498,19535,"Xanomeline High Dose",81,75,"65-80",2,"WHITE",1,"F","Y","Y","N","Week 24",24,"WEEK 6",7,42,19539,"CIBICVAL","CIBIC Score",1,4,"Y","LOCF",">140",168,126,141,null,"DAYS",6001],
[40,"CDISCPILOT01","701","701","01-701-1148",19593,19774,"Xanomeline High Dose",81,57,"<65",1,"WHITE",1,"M","Y","Y","Y","Week 8",8,"WEEK 8",8,57,19649,"CIBICVAL","CIBIC Score",1,5,"Y","","2-84",56,1,2,84,"DAYS",6001],
[41,"CDISCPILOT01","701","701","01-701-1148",19593,19774,"Xanomeline High Dose",81,57,"<65",1,"WHITE",1,"M","Y","Y","Y","Week 16",16,"WEEK 16",10,113,19705,"CIBICVAL","CIBIC Score",1,4,"Y","","85-140",112,1,85,140,"DAYS",6002],
[42,"CDISCPILOT01","701","701","01-701-1148",19593,19774,"Xanomeline High Dose",81,57,"<65",1,"WHITE",1,"M","Y","Y","Y","Week 24",24,"WEEK 24",12,170,19762,"CIBICVAL","CIBIC Score",1,5,"Y","",">140",168,2,141,null,"DAYS",6003],
[43,"CDISCPILOT01","701","701","01-701-1153",19624,19798,"Placebo",0,79,"65-80",2,"WHITE",1,"F","Y","Y","Y","Week 8",8,"WEEK 8",8,57,19680,"CIBICVAL","CIBIC Score",1,4,"Y","","2-84",56,1,2,84,"DAYS",6001],
[44,"CDISCPILOT01","701","701","01-701-1153",19624,19798,"Placebo",0,79,"65-80",2,"WHITE",1,"F","Y","Y","Y","Week 16",16,"WEEK 16",10,108,19731,"CIBICVAL","CIBIC Score",1,4,"Y","","85-140",112,4,85,140,"DAYS",6002],
[45,"CDISCPILOT01","701","701","01-701-1153",19624,19798,"Placebo",0,79,"65-80",2,"WHITE",1,"F","Y","Y","Y","Week 24",24,"WEEK 24",12,170,19793,"CIBICVAL","CIBIC Score",1,4,"Y","",">140",168,2,141,null,"DAYS",6003],
[46,"CDISCPILOT01","701","701","01-701-1180",19401,19435,"Xanomeline High Dose",81,56,"<65",1,"WHITE",1,"M","Y","Y","N","Week 8",8,"WEEK 6",7,40,19440,"CIBICVAL","CIBIC Score",1,5,"Y","","2-84",56,16,2,84,"DAYS",6001],
[47,"CDISCPILOT01","701","701","01-701-1180",19401,19435,"Xanomeline High Dose",81,56,"<65",1,"WHITE",1,"M","Y","Y","N","Week 16",16,"WEEK 6",7,40,19440,"CIBICVAL","CIBIC Score",1,5,"Y","LOCF","85-140",112,72,85,140,"DAYS",6001],
[48,"CDISCPILOT01","701","701","01-701-1180",19401,19435,"Xanomeline High Dose",81,56,"<65",1,"WHITE",1,"M","Y","Y","N","Week 24",24,"WEEK 6",7,40,19440,"CIBICVAL","CIBIC Score",1,5,"Y","LOCF",">140",168,128,141,null,"DAYS",6001],
[49,"CDISCPILOT01","701","701","01-701-1181",19697,19701,"Xanomeline High Dose",81,79,"65-80",2,"WHITE",1,"F","Y","Y","N","Week 8",8,"WEEK 2",4,8,19704,"CIBICVAL","CIBIC Score",1,4,"Y","","2-84",56,48,2,84,"DAYS",6001],
[50,"CDISCPILOT01","701","701","01-701-1181",19697,19701,"Xanomeline High Dose",81,79,"65-80",2,"WHITE",1,"F","Y","Y","N","Week 16",16,"WEEK 2",4,8,19704,"CIBICVAL","CIBIC Score",1,4,"Y","LOCF","85-140",112,104,85,140,"DAYS",6001],
[51,"CDISCPILOT01","701","701","01-701-1181",19697,19701,"Xanomeline High Dose",81,79,"65-80",2,"WHITE",1,"F","Y","Y","N","Week 24",24,"RETRIEVAL",201,170,19866,"CIBICVAL","CIBIC Score",1,5,"Y","",">140",168,2,141,null,"DAYS",6002],
[52,"CDISCPILOT01","701","701","01-701-1188",19404,19441,"Xanomeline Low Dose",54,71,"65-80",2,"WHITE",1,"M","Y","Y","N","Week 8",8,"WEEK 6",7,39,19442,"CIBICVAL","CIBIC Score",1,4,"Y","","2-84",56,17,2,84,"DAYS",6001],
[53,"CDISCPILOT01","701","701","01-701-1188",19404,19441,"Xanomeline Low Dose",54,71,"65-80",2,"WHITE",1,"M","Y","Y","N","Week 16",16,"WEEK 6",7,39,19442,"CIBICVAL","CIBIC Score",1,4,"Y","LOCF","85-140",112,73,85,140,"DAYS",6001],
[54,"CDISCPILOT01","701","701","01-701-1188",19404,19441,"Xanomeline Low Dose",54,71,"65-80",2,"WHITE",1,"M","Y","Y","N","Week 24",24,"RETRIEVAL",201,171,19574,"CIBICVAL","CIBIC Score",1,4,"Y","",">140",168,3,141,null,"DAYS",6002],
[55,"CDISCPILOT01","701","701","01-701-1192",19196,19378,"Xanomeline Low Dose",54,80,"65-80",2,"WHITE",1,"F","Y","Y","Y","Week 8",8,"WEEK 8",8,64,19259,"CIBICVAL","CIBIC Score",1,5,"Y","","2-84",56,8,2,84,"DAYS",6001],
[56,"CDISCPILOT01","701","701","01-701-1192",19196,19378,"Xanomeline Low Dose",54,80,"65-80",2,"WHITE",1,"F","Y","Y","Y","Week 16",16,"WEEK 16",10,117,19312,"CIBICVAL","CIBIC Score",1,4,"Y","","85-140",112,5,85,140,"DAYS",6002],
[57,"CDISCPILOT01","701","701","01-701-1192",19196,19378,"Xanomeline Low Dose",54,80,"65-80",2,"WHITE",1,"F","Y","Y","Y","Week 24",24,"WEEK 24",12,174,19369,"CIBICVAL","CIBIC Score",1,4,"Y","",">140",168,6,141,null,"DAYS",6003],
[58,"CDISCPILOT01","701","701","01-701-1203",19391,19573,"Placebo",0,81,">80",3,"BLACK OR AFRICAN AMERICAN",2,"F","Y","Y","Y","Week 8",8,"WEEK 8",8,57,19447,"CIBICVAL","CIBIC Score",1,4,"Y","","2-84",56,1,2,84,"DAYS",6001],
[59,"CDISCPILOT01","701","701","01-701-1203",19391,19573,"Placebo",0,81,">80",3,"BLACK OR AFRICAN AMERICAN",2,"F","Y","Y","Y","Week 16",16,"WEEK 16",10,113,19503,"CIBICVAL","CIBIC Score",1,4,"Y","","85-140",112,1,85,140,"DAYS",6002],
[60,"CDISCPILOT01","701","701","01-701-1203",19391,19573,"Placebo",0,81,">80",3,"BLACK OR AFRICAN AMERICAN",2,"F","Y","Y","Y","Week 24",24,"WEEK 24",12,171,19561,"CIBICVAL","CIBIC Score",1,4,"Y","",">140",168,3,141,null,"DAYS",6003],
[61,"CDISCPILOT01","701","701","01-701-1211",19312,19370,"Xanomeline Low Dose",54,76,"65-80",2,"WHITE",1,"F","Y","Y","N","Week 8",8,"WEEK 8",8,55,19366,"CIBICVAL","CIBIC Score",1,5,"Y","","2-84",56,1,2,84,"DAYS",6001],
[62,"CDISCPILOT01","701","701","01-701-1211",19312,19370,"Xanomeline Low Dose",54,76,"65-80",2,"WHITE",1,"F","Y","Y","N","Week 16",16,"WEEK 8",8,55,19366,"CIBICVAL","CIBIC Score",1,5,"Y","LOCF","85-140",112,57,85,140,"DAYS",6001],
[63,"CDISCPILOT01","701","701","01-701-1211",19312,19370,"Xanomeline Low Dose",54,76,"65-80",2,"WHITE",1,"F","Y","Y","N","Week 24",24,"WEEK 8",8,55,19366,"CIBICVAL","CIBIC Score",1,5,"Y","LOCF",">140",168,113,141,null,"DAYS",6001],
[64,"CDISCPILOT01","701","701","01-701-1234",19447,19623,"Placebo",0,69,"65-80",2,"WHITE",1,"M","Y","Y","Y","Week 8",8,"WEEK 8",8,58,19504,"CIBICVAL","CIBIC Score",1,3,"Y","","2-84",56,2,2,84,"DAYS",6001],
[65,"CDISCPILOT01","701","701","01-701-1234",19447,19623,"Placebo",0,69,"65-80",2,"WHITE",1,"M","Y","Y","Y","Week 16",16,"WEEK 16",10,120,19566,"CIBICVAL","CIBIC Score",1,4,"Y","","85-140",112,8,85,140,"DAYS",6002],
[66,"CDISCPILOT01","701","701","01-701-1234",19447,19623,"Placebo",0,69,"65-80",2,"WHITE",1,"M","Y","Y","Y","Week 24",24,"WEEK 24",12,165,19611,"CIBICVAL","CIBIC Score",1,4,"Y","",">140",168,3,141,null,"DAYS",6003],
[67,"CDISCPILOT01","701","701","01-701-1239",19734,19914,"Xanomeline High Dose",81,56,"<65",1,"WHITE",1,"M","Y","Y","Y","Week 8",8,"WEEK 8",8,55,19788,"CIBICVAL","CIBIC Score",1,3,"Y","","2-84",56,1,2,84,"DAYS",6001],
[68,"CDISCPILOT01","701","701","01-701-1239",19734,19914,"Xanomeline High Dose",81,56,"<65",1,"WHITE",1,"M","Y","Y","Y","Week 16",16,"WEEK 16",10,112,19845,"CIBICVAL","CIBIC Score",1,2,"Y","","85-140",112,0,85,140,"DAYS",6002],
[69,"CDISCPILOT01","701","701","01-701-1239",19734,19914,"Xanomeline High Dose",81,56,"<65",1,"WHITE",1,"M","Y","Y","Y","Week 24",24,"WEEK 24",12,168,19901,"CIBICVAL","CIBIC Score",1,3,"Y","",">140",168,0,141,null,"DAYS",6003],
[70,"CDISCPILOT01","701","701","01-701-1275",19761,19874,"Xanomeline High Dose",81,61,"<65",1,"AMERICAN INDIAN OR ALASKA NATIVE",6,"M","Y","Y","N","Week 8",8,"WEEK 8",8,58,19818,"CIBICVAL","CIBIC Score",1,3,"Y","","2-84",56,2,2,84,"DAYS",6001],
[71,"CDISCPILOT01","701","701","01-701-1275",19761,19874,"Xanomeline High Dose",81,61,"<65",1,"AMERICAN INDIAN OR ALASKA NATIVE",6,"M","Y","Y","N","Week 16",16,"WEEK 16",10,128,19888,"CIBICVAL","CIBIC Score",1,4,"Y","","85-140",112,16,85,140,"DAYS",6002],
[72,"CDISCPILOT01","701","701","01-701-1275",19761,19874,"Xanomeline High Dose",81,61,"<65",1,"AMERICAN INDIAN OR ALASKA NATIVE",6,"M","Y","Y","N","Week 24",24,"WEEK 16",10,128,19888,"CIBICVAL","CIBIC Score",1,4,"Y","LOCF",">140",168,40,141,null,"DAYS",6002],
[73,"CDISCPILOT01","701","701","01-701-1287",19748,19930,"Xanomeline High Dose",81,56,"<65",1,"WHITE",1,"F","Y","Y","Y","Week 8",8,"WEEK 8",8,56,19803,"CIBICVAL","CIBIC Score",1,4,"Y","","2-84",56,0,2,84,"DAYS",6001],
[74,"CDISCPILOT01","701","701","01-701-1287",19748,19930,"Xanomeline High Dose",81,56,"<65",1,"WHITE",1,"F","Y","Y","Y","Week 16",16,"WEEK 16",10,111,19858,"CIBICVAL","CIBIC Score",1,4,"Y","","85-140",112,1,85,140,"DAYS",6002],
[75,"CDISCPILOT01","701","701","01-701-1287",19748,19930,"Xanomeline High Dose",81,56,"<65",1,"WHITE",1,"F","Y","Y","Y","Week 24",24,"WEEK 24",12,169,19916,"CIBICVAL","CIBIC Score",1,4,"Y","",">140",168,1,141,null,"DAYS",6003],
[76,"CDISCPILOT01","701","701","01-701-1294",19441,19523,"Xanomeline Low Dose",54,67,"65-80",2,"WHITE",1,"M","Y","Y","N","Week 8",8,"WEEK 8",8,60,19500,"CIBICVAL","CIBIC Score",1,5,"Y","","2-84",56,4,2,84,"DAYS",6001],
[77,"CDISCPILOT01","701","701","01-701-1294",19441,19523,"Xanomeline Low Dose",54,67,"65-80",2,"WHITE",1,"M","Y","Y","N","Week 8",8,"WEEK 12",9,83,19523,"CIBICVAL","CIBIC Score",1,4,"","","2-84",56,27,2,84,"DAYS",6002],
[78,"CDISCPILOT01","701","701","01-701-1294",19441,19523,"Xanomeline Low Dose",54,67,"65-80",2,"WHITE",1,"M","Y","Y","N","Week 16",16,"WEEK 12",9,83,19523,"CIBICVAL","CIBIC Score",1,5,"Y","LOCF","85-140",112,29,85,140,"DAYS",6002],
[79,"CDISCPILOT01","701","701","01-701-1294",19441,19523,"Xanomeline Low Dose",54,67,"65-80",2,"WHITE",1,"M","Y","Y","N","Week 24",24,"RETRIEVAL",201,199,19639,"CIBICVAL","CIBIC Score",1,5,"Y","",">140",168,31,141,null,"DAYS",6003],
[80,"CDISCPILOT01","701","701","01-701-1302",19599,19667,"Xanomeline High Dose",81,61,"<65",1,"WHITE",1,"M","Y","Y","N","Week 8",8,"WEEK 8",8,55,19653,"CIBICVAL","CIBIC Score",1,4,"Y","","2-84",56,1,2,84,"DAYS",6001],
[81,"CDISCPILOT01","701","701","01-701-1302",19599,19667,"Xanomeline High Dose",81,61,"<65",1,"WHITE",1,"M","Y","Y","N","Week 8",8,"WEEK 12",9,69,19667,"CIBICVAL","CIBIC Score",1,5,"","","2-84",56,13,2,84,"DAYS",6002],
[82,"CDISCPILOT01","701","701","01-701-1302",19599,19667,"Xanomeline High Dose",81,61,"<65",1,"WHITE",1,"M","Y","Y","N","Week 16",16,"WEEK 12",9,69,19667,"CIBICVAL","CIBIC Score",1,4,"Y","LOCF","85-140",112,43,85,140,"DAYS",6002],
[83,"CDISCPILOT01","701","701","01-701-1302",19599,19667,"Xanomeline High Dose",81,61,"<65",1,"WHITE",1,"M","Y","Y","N","Week 24",24,"RETRIEVAL",201,169,19767,"CIBICVAL","CIBIC Score",1,4,"Y","",">140",168,1,141,null,"DAYS",6003],
[84,"CDISCPILOT01","701","701","01-701-1317",19865,20047,"Xanomeline Low Dose",54,68,"65-80",2,"WHITE",1,"M","Y","Y","Y","Week 8",8,"WEEK 8",8,62,19926,"CIBICVAL","CIBIC Score",1,4,"Y","","2-84",56,6,2,84,"DAYS",6001],
[85,"CDISCPILOT01","701","701","01-701-1317",19865,20047,"Xanomeline Low Dose",54,68,"65-80",2,"WHITE",1,"M","Y","Y","Y","Week 16",16,"WEEK 16",10,113,19977,"CIBICVAL","CIBIC Score",1,4,"Y","","85-140",112,1,85,140,"DAYS",6002],
[86,"CDISCPILOT01","701","701","01-701-1317",19865,20047,"Xanomeline Low Dose",54,68,"65-80",2,"WHITE",1,"M","Y","Y","Y","Week 24",24,"WEEK 24",12,169,20033,"CIBICVAL","CIBIC Score",1,4,"Y","",">140",168,1,141,null,"DAYS",6003],
[87,"CDISCPILOT01","701","701","01-701-1324",19268,19450,"Xanomeline Low Dose",54,79,"65-80",2,"WHITE",1,"M","Y","Y","Y","Week 8",8,"WEEK 8",8,55,19322,"CIBICVAL","CIBIC Score",1,4,"Y","","2-84",56,1,2,84,"DAYS",6001],
[88,"CDISCPILOT01","701","701","01-701-1324",19268,19450,"Xanomeline Low Dose",54,79,"65-80",2,"WHITE",1,"M","Y","Y","Y","Week 16",16,"WEEK 16",10,113,19380,"CIBICVAL","CIBIC Score",1,4,"Y","","85-140",112,1,85,140,"DAYS",6002],
[89,"CDISCPILOT01","701","701","01-701-1324",19268,19450,"Xanomeline Low Dose",54,79,"65-80",2,"WHITE",1,"M","Y","Y","Y","Week 24",24,"WEEK 24",12,169,19436,"CIBICVAL","CIBIC Score",1,5,"Y","",">140",168,1,141,null,"DAYS",6003],
[90,"CDISCPILOT01","701","701","01-701-1341",19363,19384,"Xanomeline Low Dose",54,51,"<65",1,"WHITE",1,"M","Y","Y","N","Week 8",8,"WEEK 4",5,34,19396,"CIBICVAL","CIBIC Score",1,4,"Y","","2-84",56,22,2,84,"DAYS",6001],
[91,"CDISCPILOT01","701","701","01-701-1341",19363,19384,"Xanomeline Low Dose",54,51,"<65",1,"WHITE",1,"M","Y","Y","N","Week 16",16,"WEEK 4",5,34,19396,"CIBICVAL","CIBIC Score",1,4,"Y","LOCF","85-140",112,78,85,140,"DAYS",6001],
[92,"CDISCPILOT01","701","701","01-701-1341",19363,19384,"Xanomeline Low Dose",54,51,"<65",1,"WHITE",1,"M","Y","Y","N","Week 24",24,"WEEK 4",5,34,19396,"CIBICVAL","CIBIC Score",1,4,"Y","LOCF",">140",168,134,141,null,"DAYS",6001],
[93,"CDISCPILOT01","701","701","01-701-1345",19639,19800,"Placebo",0,63,"<65",1,"WHITE",1,"F","Y","Y","Y","Week 8",8,"WEEK 8",8,57,19695,"CIBICVAL","CIBIC Score",1,4,"Y","","2-84",56,1,2,84,"DAYS",6001],
[94,"CDISCPILOT01","701","701","01-701-1345",19639,19800,"Placebo",0,63,"<65",1,"WHITE",1,"F","Y","Y","Y","Week 16",16,"WEEK 16",10,112,19750,"CIBICVAL","CIBIC Score",1,5,"Y","","85-140",112,0,85,140,"DAYS",6002],
[95,"CDISCPILOT01","701","701","01-701-1345",19639,19800,"Placebo",0,63,"<65",1,"WHITE",1,"F","Y","Y","Y","Week 24",24,"WEEK 24",12,162,19800,"CIBICVAL","CIBIC Score",1,5,"Y","",">140",168,6,141,null,"DAYS",6003],
[96,"CDISCPILOT01","701","701","01-701-1360",19570,19575,"Xanomeline High Dose",81,67,"65-80",2,"WHITE",1,"M","Y","Y","N","Week 8",8,"WEEK 2",4,15,19584,"CIBICVAL","CIBIC Score",1,4,"Y","","2-84",56,41,2,84,"DAYS",6001],
[97,"CDISCPILOT01","701","701","01-701-1360",19570,19575,"Xanomeline High Dose",81,67,"65-80",2,"WHITE",1,"M","Y","Y","N","Week 16",16,"WEEK 2",4,15,19584,"CIBICVAL","CIBIC Score",1,4,"Y","LOCF","85-140",112,97,85,140,"DAYS",6001],
[98,"CDISCPILOT01","701","701","01-701-1360",19570,19575,"Xanomeline High Dose",81,67,"65-80",2,"WHITE",1,"M","Y","Y","N","Week 24",24,"RETRIEVAL",201,196,19765,"CIBICVAL","CIBIC Score",1,4,"Y","",">140",168,28,141,null,"DAYS",6002],
[99,"CDISCPILOT01","701","701","01-701-1363",19508,19689,"Placebo",0,81,">80",3,"BLACK OR AFRICAN AMERICAN",2,"F","Y","Y","Y","Week 8",8,"WEEK 8",8,56,19563,"CIBICVAL","CIBIC Score",1,5,"Y","","2-84",56,0,2,84,"DAYS",6001],
[100,"CDISCPILOT01","701","701","01-701-1363",19508,19689,"Placebo",0,81,">80",3,"BLACK OR AFRICAN AMERICAN",2,"F","Y","Y","Y","Week 16",16,"WEEK 16",10,112,19619,"CIBICVAL","CIBIC Score",1,4,"Y","","85-140",112,0,85,140,"DAYS",6002],
[101,"CDISCPILOT01","701","701","01-701-1363",19508,19689,"Placebo",0,81,">80",3,"BLACK OR AFRICAN AMERICAN",2,"F","Y","Y","Y","Week 24",24,"WEEK 24",12,168,19675,"CIBICVAL","CIBIC Score",1,5,"Y","",">140",168,0,141,null,"DAYS",6003],
[102,"CDISCPILOT01","701","701","01-701-1383",19393,19576,"Xanomeline High Dose",81,72,"65-80",2,"WHITE",1,"F","Y","Y","Y","Week 8",8,"WEEK 8",8,58,19450,"CIBICVAL","CIBIC Score",1,4,"Y","","2-84",56,2,2,84,"DAYS",6001],
[103,"CDISCPILOT01","701","701","01-701-1383",19393,19576,"Xanomeline High Dose",81,72,"65-80",2,"WHITE",1,"F","Y","Y","Y","Week 16",16,"WEEK 16",10,116,19508,"CIBICVAL","CIBIC Score",1,4,"Y","","85-140",112,4,85,140,"DAYS",6002],
[104,"CDISCPILOT01","701","701","01-701-1383",19393,19576,"Xanomeline High Dose",81,72,"65-80",2,"WHITE",1,"F","Y","Y","Y","Week 24",24,"WEEK 24",12,177,19569,"CIBICVAL","CIBIC Score",1,5,"Y","",">140",168,9,141,null,"DAYS",6003],
[105,"CDISCPILOT01","701","701","01-701-1387",19794,19807,"Placebo",0,87,">80",3,"WHITE",1,"F","Y","Y","N","Week 8",8,"WEEK 2",4,14,19807,"CIBICVAL","CIBIC Score",1,3,"Y","","2-84",56,42,2,84,"DAYS",6001],
[106,"CDISCPILOT01","701","701","01-701-1387",19794,19807,"Placebo",0,87,">80",3,"WHITE",1,"F","Y","Y","N","Week 16",16,"WEEK 2",4,14,19807,"CIBICVAL","CIBIC Score",1,3,"Y","LOCF","85-140",112,98,85,140,"DAYS",6001],
[107,"CDISCPILOT01","701","701","01-701-1387",19794,19807,"Placebo",0,87,">80",3,"WHITE",1,"F","Y","Y","N","Week 24",24,"RETRIEVAL",201,169,19962,"CIBICVAL","CIBIC Score",1,6,"Y","",">140",168,1,141,null,"DAYS",6002],
[108,"CDISCPILOT01","701","701","01-701-1392",19294,19476,"Placebo",0,78,"65-80",2,"WHITE",1,"M","Y","Y","Y","Week 8",8,"WEEK 8",8,54,19347,"CIBICVAL","CIBIC Score",1,4,"Y","","2-84",56,2,2,84,"DAYS",6001],
[109,"CDISCPILOT01","701","701","01-701-1392",19294,19476,"Placebo",0,78,"65-80",2,"WHITE",1,"M","Y","Y","Y","Week 16",16,"WEEK 16",10,113,19406,"CIBICVAL","CIBIC Score",1,5,"Y","","85-140",112,1,85,140,"DAYS",6002],
[110,"CDISCPILOT01","701","701","01-701-1392",19294,19476,"Placebo",0,78,"65-80",2,"WHITE",1,"M","Y","Y","Y","Week 24",24,"WEEK 24",12,170,19463,"CIBICVAL","CIBIC Score",1,4,"Y","",">140",168,2,141,null,"DAYS",6003],
[111,"CDISCPILOT01","701","701","01-701-1415",19624,19806,"Placebo",0,85,">80",3,"WHITE",1,"M","Y","Y","Y","Week 8",8,"WEEK 8",8,60,19683,"CIBICVAL","CIBIC Score",1,5,"Y","","2-84",56,4,2,84,"DAYS",6001],
[112,"CDISCPILOT01","701","701","01-701-1415",19624,19806,"Placebo",0,85,">80",3,"WHITE",1,"M","Y","Y","Y","Week 16",16,"WEEK 16",10,114,19737,"CIBICVAL","CIBIC Score",1,4,"Y","","85-140",112,2,85,140,"DAYS",6002],
[113,"CDISCPILOT01","701","701","01-701-1415",19624,19806,"Placebo",0,85,">80",3,"WHITE",1,"M","Y","Y","Y","Week 24",24,"WEEK 24",12,169,19792,"CIBICVAL","CIBIC Score",1,4,"Y","",">140",168,1,141,null,"DAYS",6003],
[114,"CDISCPILOT01","701","701","01-701-1429",19436,19478,"Xanomeline Low Dose",54,84,">80",3,"WHITE",1,"F","Y","Y","N","Week 8",8,"WEEK 6",7,43,19478,"CIBICVAL","CIBIC Score",1,3,"Y","","2-84",56,13,2,84,"DAYS",6001],
[115,"CDISCPILOT01","701","701","01-701-1429",19436,19478,"Xanomeline Low Dose",54,84,">80",3,"WHITE",1,"F","Y","Y","N","Week 16",16,"WEEK 6",7,43,19478,"CIBICVAL","CIBIC Score",1,3,"Y","LOCF","85-140",112,69,85,140,"DAYS",6001],
[116,"CDISCPILOT01","701","701","01-701-1429",19436,19478,"Xanomeline Low Dose",54,84,">80",3,"WHITE",1,"F","Y","Y","N","Week 24",24,"WEEK 6",7,43,19478,"CIBICVAL","CIBIC Score",1,3,"Y","LOCF",">140",168,125,141,null,"DAYS",6001],
[117,"CDISCPILOT01","701","701","01-701-1440",19578,19759,"Placebo",0,70,"65-80",2,"WHITE",1,"M","Y","Y","Y","Week 8",8,"WEEK 8",8,57,19634,"CIBICVAL","CIBIC Score",1,3,"Y","","2-84",56,1,2,84,"DAYS",6001],
[118,"CDISCPILOT01","701","701","01-701-1440",19578,19759,"Placebo",0,70,"65-80",2,"WHITE",1,"M","Y","Y","Y","Week 16",16,"WEEK 16",10,112,19689,"CIBICVAL","CIBIC Score",1,5,"Y","","85-140",112,0,85,140,"DAYS",6002],
[119,"CDISCPILOT01","701","701","01-701-1440",19578,19759,"Placebo",0,70,"65-80",2,"WHITE",1,"M","Y","Y","Y","Week 24",24,"WEEK 24",12,168,19745,"CIBICVAL","CIBIC Score",1,5,"Y","",">140",168,0,141,null,"DAYS",6003],
[120,"CDISCPILOT01","701","701","01-701-1442",19657,19839,"Xanomeline Low Dose",54,57,"<65",1,"BLACK OR AFRICAN AMERICAN",2,"F","Y","Y","Y","Week 8",8,"WEEK 8",8,62,19718,"CIBICVAL","CIBIC Score",1,4,"Y","","2-84",56,6,2,84,"DAYS",6001],
[121,"CDISCPILOT01","701","701","01-701-1442",19657,19839,"Xanomeline Low Dose",54,57,"<65",1,"BLACK OR AFRICAN AMERICAN",2,"F","Y","Y","Y","Week 16",16,"WEEK 16",10,113,19769,"CIBICVAL","CIBIC Score",1,4,"Y","","85-140",112,1,85,140,"DAYS",6002],
[122,"CDISCPILOT01","701","701","01-701-1442",19657,19839,"Xanomeline Low Dose",54,57,"<65",1,"BLACK OR AFRICAN AMERICAN",2,"F","Y","Y","Y","Week 24",24,"WEEK 24",12,174,19830,"CIBICVAL","CIBIC Score",1,4,"Y","",">140",168,6,141,null,"DAYS",6003],
[123,"CDISCPILOT01","701","701","01-701-1444",19363,19401,"Xanomeline High Dose",81,63,"<65",1,"WHITE",1,"M","Y","Y","N","Week 8",8,"WEEK 6",7,40,19402,"CIBICVAL","CIBIC Score",1,5,"Y","","2-84",56,16,2,84,"DAYS",6001],
[124,"CDISCPILOT01","701","701","01-701-1444",19363,19401,"Xanomeline High Dose",81,63,"<65",1,"WHITE",1,"M","Y","Y","N","Week 16",16,"WEEK 6",7,40,19402,"CIBICVAL","CIBIC Score",1,5,"Y","LOCF","85-140",112,72,85,140,"DAYS",6001],
[125,"CDISCPILOT01","701","701","01-701-1444",19363,19401,"Xanomeline High Dose",81,63,"<65",1,"WHITE",1,"M","Y","Y","N","Week 24",24,"RETRIEVAL",201,167,19529,"CIBICVAL","CIBIC Score",1,5,"Y","",">140",168,1,141,null,"DAYS",6002],
[126,"CDISCPILOT01","702","900","01-702-1082",19565,19644,"Xanomeline Low Dose",54,84,">80",3,"WHITE",1,"F","Y","Y","N","Week 8",8,"WEEK 8",8,65,19629,"CIBICVAL","CIBIC Score",1,4,"Y","","2-84",56,9,2,84,"DAYS",6001],
[127,"CDISCPILOT01","702","900","01-702-1082",19565,19644,"Xanomeline Low Dose",54,84,">80",3,"WHITE",1,"F","Y","Y","N","Week 16",16,"WEEK 12",9,115,19679,"CIBICVAL","CIBIC Score",1,4,"Y","","85-140",112,3,85,140,"DAYS",6002],
[128,"CDISCPILOT01","702","900","01-702-1082",19565,19644,"Xanomeline Low Dose",54,84,">80",3,"WHITE",1,"F","Y","Y","N","Week 24",24,"WEEK 12",9,115,19679,"CIBICVAL","CIBIC Score",1,4,"Y","LOCF",">140",168,53,141,null,"DAYS",6002],
[129,"CDISCPILOT01","703","703","01-703-1042",19419,19601,"Placebo",0,64,"<65",1,"WHITE",1,"M","Y","Y","Y","Week 16",16,"WEEK 16",10,113,19531,"CIBICVAL","CIBIC Score",1,4,"Y","","85-140",112,1,85,140,"DAYS",6001],
[130,"CDISCPILOT01","703","703","01-703-1042",19419,19601,"Placebo",0,64,"<65",1,"WHITE",1,"M","Y","Y","Y","Week 24",24,"WEEK 24",12,161,19579,"CIBICVAL","CIBIC Score",1,4,"Y","",">140",168,7,141,null,"DAYS",6002],
[131,"CDISCPILOT01","703","703","01-703-1076",19656,19716,"Xanomeline High Dose",81,69,"65-80",2,"WHITE",1,"M","Y","Y","N","Week 8",8,"WEEK 8",8,54,19709,"CIBICVAL","CIBIC Score",1,3,"Y","","2-84",56,2,2,84,"DAYS",6001],
[132,"CDISCPILOT01","703","703","01-703-1076",19656,19716,"Xanomeline High Dose",81,69,"65-80",2,"WHITE",1,"M","Y","Y","N","Week 8",8,"WEEK 12",9,61,19716,"CIBICVAL","CIBIC Score",1,3,"","","2-84",56,5,2,84,"DAYS",6002],
[133,"CDISCPILOT01","703","703","01-703-1076",19656,19716,"Xanomeline High Dose",81,69,"65-80",2,"WHITE",1,"M","Y","Y","N","Week 16",16,"WEEK 12",9,61,19716,"CIBICVAL","CIBIC Score",1,3,"Y","LOCF","85-140",112,51,85,140,"DAYS",6002],
[134,"CDISCPILOT01","703","703","01-703-1076",19656,19716,"Xanomeline High Dose",81,69,"65-80",2,"WHITE",1,"M","Y","Y","N","Week 24",24,"WEEK 12",9,61,19716,"CIBICVAL","CIBIC Score",1,3,"Y","LOCF",">140",168,107,141,null,"DAYS",6002],
[135,"CDISCPILOT01","703","703","01-703-1086",19238,19331,"Xanomeline Low Dose",54,71,"65-80",2,"WHITE",1,"M","Y","Y","N","Week 8",8,"WEEK 8",8,56,19293,"CIBICVAL","CIBIC Score",1,3,"Y","","2-84",56,0,2,84,"DAYS",6001],
[136,"CDISCPILOT01","703","703","01-703-1086",19238,19331,"Xanomeline Low Dose",54,71,"65-80",2,"WHITE",1,"M","Y","Y","N","Week 16",16,"WEEK 16",10,114,19351,"CIBICVAL","CIBIC Score",1,3,"Y","","85-140",112,2,85,140,"DAYS",6002],
[137,"CDISCPILOT01","703","703","01-703-1086",19238,19331,"Xanomeline Low Dose",54,71,"65-80",2,"WHITE",1,"M","Y","Y","N","Week 24",24,"RETRIEVAL",201,206,19443,"CIBICVAL","CIBIC Score",1,3,"Y","",">140",168,38,141,null,"DAYS",6003],
[138,"CDISCPILOT01","703","703","01-703-1100",19430,19615,"Placebo",0,84,">80",3,"WHITE",1,"F","Y","Y","Y","Week 8",8,"WEEK 8",8,57,19486,"CIBICVAL","CIBIC Score",1,4,"Y","","2-84",56,1,2,84,"DAYS",6001],
[139,"CDISCPILOT01","703","703","01-703-1100",19430,19615,"Placebo",0,84,">80",3,"WHITE",1,"F","Y","Y","Y","Week 16",16,"WEEK 16",10,113,19542,"CIBICVAL","CIBIC Score",1,4,"Y","","85-140",112,1,85,140,"DAYS",6002],
[140,"CDISCPILOT01","703","703","01-703-1100",19430,19615,"Placebo",0,84,">80",3,"WHITE",1,"F","Y","Y","Y","Week 24",24,"WEEK 24",12,169,19598,"CIBICVAL","CIBIC Score",1,5,"Y","",">140",168,1,141,null,"DAYS",6003],
[141,"CDISCPILOT01","703","703","01-703-1119",19409,19522,"Xanomeline Low Dose",54,81,">80",3,"WHITE",1,"F","Y","Y","N","Week 8",8,"WEEK 8",8,59,19467,"CIBICVAL","CIBIC Score",1,4,"Y","","2-84",56,3,2,84,"DAYS",6001],
[142,"CDISCPILOT01","703","703","01-703-1119",19409,19522,"Xanomeline Low Dose",54,81,">80",3,"WHITE",1,"F","Y","Y","N","Week 16",16,"WEEK 16",10,114,19522,"CIBICVAL","CIBIC Score",1,5,"Y","","85-140",112,2,85,140,"DAYS",6002],
[143,"CDISCPILOT01","703","703","01-703-1119",19409,19522,"Xanomeline Low Dose",54,81,">80",3,"WHITE",1,"F","Y","Y","N","Week 24",24,"RETRIEVAL",201,186,19594,"CIBICVAL","CIBIC Score",1,5,"Y","",">140",168,18,141,null,"DAYS",6003],
[144,"CDISCPILOT01","703","703","01-703-1175",19712,19718,"Placebo",0,75,"65-80",2,"WHITE",1,"M","Y","Y","N","Week 8",8,"WEEK 2",4,12,19723,"CIBICVAL","CIBIC Score",1,4,"Y","","2-84",56,44,2,84,"DAYS",6001],
[145,"CDISCPILOT01","703","703","01-703-1175",19712,19718,"Placebo",0,75,"65-80",2,"WHITE",1,"M","Y","Y","N","Week 16",16,"WEEK 2",4,12,19723,"CIBICVAL","CIBIC Score",1,4,"Y","LOCF","85-140",112,100,85,140,"DAYS",6001],
[146,"CDISCPILOT01","703","703","01-703-1175",19712,19718,"Placebo",0,75,"65-80",2,"WHITE",1,"M","Y","Y","N","Week 24",24,"WEEK 2",4,12,19723,"CIBICVAL","CIBIC Score",1,4,"Y","LOCF",">140",168,156,141,null,"DAYS",6001],
[147,"CDISCPILOT01","703","703","01-703-1182",19648,19703,"Xanomeline Low Dose",54,84,">80",3,"WHITE",1,"M","Y","Y","N","Week 8",8,"WEEK 8",8,57,19704,"CIBICVAL","CIBIC Score",1,4,"Y","","2-84",56,1,2,84,"DAYS",6001],
[148,"CDISCPILOT01","703","703","01-703-1182",19648,19703,"Xanomeline Low Dose",54,84,">80",3,"WHITE",1,"M","Y","Y","N","Week 16",16,"WEEK 8",8,57,19704,"CIBICVAL","CIBIC Score",1,4,"Y","LOCF","85-140",112,55,85,140,"DAYS",6001],
[149,"CDISCPILOT01","703","703","01-703-1182",19648,19703,"Xanomeline Low Dose",54,84,">80",3,"WHITE",1,"M","Y","Y","N","Week 24",24,"WEEK 8",8,57,19704,"CIBICVAL","CIBIC Score",1,4,"Y","LOCF",">140",168,111,141,null,"DAYS",6001],
[150,"CDISCPILOT01","703","703","01-703-1197",19525,19538,"Xanomeline Low Dose",54,76,"65-80",2,"BLACK OR AFRICAN AMERICAN",2,"F","Y","Y","N","Week 8",8,"WEEK 2",4,37,19561,"CIBICVAL","CIBIC Score",1,4,"Y","","2-84",56,19,2,84,"DAYS",6001],
[151,"CDISCPILOT01","703","703","01-703-1197",19525,19538,"Xanomeline Low Dose",54,76,"65-80",2,"BLACK OR AFRICAN AMERICAN",2,"F","Y","Y","N","Week 16",16,"WEEK 2",4,37,19561,"CIBICVAL","CIBIC Score",1,4,"Y","LOCF","85-140",112,75,85,140,"DAYS",6001],
[152,"CDISCPILOT01","703","703","01-703-1197",19525,19538,"Xanomeline Low Dose",54,76,"65-80",2,"BLACK OR AFRICAN AMERICAN",2,"F","Y","Y","N","Week 24",24,"WEEK 2",4,37,19561,"CIBICVAL","CIBIC Score",1,4,"Y","LOCF",">140",168,131,141,null,"DAYS",6001],
[153,"CDISCPILOT01","703","703","01-703-1210",19433,19607,"Placebo",0,72,"65-80",2,"WHITE",1,"F","Y","Y","Y","Week 8",8,"WEEK 8",8,56,19488,"CIBICVAL","CIBIC Score",1,5,"Y","","2-84",56,0,2,84,"DAYS",6001],
[154,"CDISCPILOT01","703","703","01-703-1210",19433,19607,"Placebo",0,72,"65-80",2,"WHITE",1,"F","Y","Y","Y","Week 16",16,"WEEK 16",10,112,19544,"CIBICVAL","CIBIC Score",1,4,"Y","","85-140",112,0,85,140,"DAYS",6002],
[155,"CDISCPILOT01","703","703","01-703-1210",19433,19607,"Placebo",0,72,"65-80",2,"WHITE",1,"F","Y","Y","Y","Week 24",24,"WEEK 24",12,162,19594,"CIBICVAL","CIBIC Score",1,5,"Y","",">140",168,6,141,null,"DAYS",6003],
[156,"CDISCPILOT01","703","703","01-703-1258",19194,19369,"Xanomeline High Dose",81,78,"65-80",2,"WHITE",1,"F","Y","Y","Y","Week 8",8,"WEEK 8",8,57,19250,"CIBICVAL","CIBIC Score",1,5,"Y","","2-84",56,1,2,84,"DAYS",6001],
[157,"CDISCPILOT01","703","703","01-703-1258",19194,19369,"Xanomeline High Dose",81,78,"65-80",2,"WHITE",1,"F","Y","Y","Y","Week 16",16,"WEEK 16",10,109,19302,"CIBICVAL","CIBIC Score",1,4,"Y","","85-140",112,3,85,140,"DAYS",6002],
[158,"CDISCPILOT01","703","703","01-703-1258",19194,19369,"Xanomeline High Dose",81,78,"65-80",2,"WHITE",1,"F","Y","Y","Y","Week 24",24,"WEEK 24",12,165,19358,"CIBICVAL","CIBIC Score",1,5,"Y","",">140",168,3,141,null,"DAYS",6003],
[159,"CDISCPILOT01","703","703","01-703-1295",19683,19832,"Xanomeline High Dose",81,88,">80",3,"WHITE",1,"F","Y","Y","N","Week 8",8,"WEEK 8",8,56,19738,"CIBICVAL","CIBIC Score",1,5,"Y","","2-84",56,0,2,84,"DAYS",6001],
[160,"CDISCPILOT01","703","703","01-703-1295",19683,19832,"Xanomeline High Dose",81,88,">80",3,"WHITE",1,"F","Y","Y","N","Week 16",16,"WEEK 16",10,113,19795,"CIBICVAL","CIBIC Score",1,4,"Y","","85-140",112,1,85,140,"DAYS",6002],
[161,"CDISCPILOT01","703","703","01-703-1295",19683,19832,"Xanomeline High Dose",81,88,">80",3,"WHITE",1,"F","Y","Y","N","Week 24",24,"WEEK 16",10,113,19795,"CIBICVAL","CIBIC Score",1,4,"Y","LOCF",">140",168,55,141,null,"DAYS",6002],
[162,"CDISCPILOT01","703","703","01-703-1299",19248,19430,"Placebo",0,81,">80",3,"WHITE",1,"F","Y","Y","Y","Week 8",8,"WEEK 8",8,57,19304,"CIBICVAL","CIBIC Score",1,3,"Y","","2-84",56,1,2,84,"DAYS",6001],
[163,"CDISCPILOT01","703","703","01-703-1299",19248,19430,"Placebo",0,81,">80",3,"WHITE",1,"F","Y","Y","Y","Week 16",16,"WEEK 16",10,113,19360,"CIBICVAL","CIBIC Score",1,4,"Y","","85-140",112,1,85,140,"DAYS",6002],
[164,"CDISCPILOT01","703","703","01-703-1299",19248,19430,"Placebo",0,81,">80",3,"WHITE",1,"F","Y","Y","Y","Week 24",24,"WEEK 24",12,171,19418,"CIBICVAL","CIBIC Score",1,4,"Y","",">140",168,3,141,null,"DAYS",6003],
[165,"CDISCPILOT01","703","703","01-703-1335",19799,19850,"Xanomeline High Dose",81,67,"65-80",2,"BLACK OR AFRICAN AMERICAN",2,"F","Y","Y","N","Week 8",8,"WEEK 6",7,69,19867,"CIBICVAL","CIBIC Score",1,5,"Y","","2-84",56,13,2,84,"DAYS",6001],
[166,"CDISCPILOT01","703","703","01-703-1335",19799,19850,"Xanomeline High Dose",81,67,"65-80",2,"BLACK OR AFRICAN AMERICAN",2,"F","Y","Y","N","Week 16",16,"WEEK 6",7,69,19867,"CIBICVAL","CIBIC Score",1,5,"Y","LOCF","85-140",112,43,85,140,"DAYS",6001],
[167,"CDISCPILOT01","703","703","01-703-1335",19799,19850,"Xanomeline High Dose",81,67,"65-80",2,"BLACK OR AFRICAN AMERICAN",2,"F","Y","Y","N","Week 24",24,"WEEK 6",7,69,19867,"CIBICVAL","CIBIC Score",1,5,"Y","LOCF",">140",168,99,141,null,"DAYS",6001],
[168,"CDISCPILOT01","703","703","01-703-1379",19623,19803,"Xanomeline Low Dose",54,81,">80",3,"BLACK OR AFRICAN AMERICAN",2,"F","Y","Y","Y","Week 8",8,"WEEK 8",8,57,19679,"CIBICVAL","CIBIC Score",1,4,"Y","","2-84",56,1,2,84,"DAYS",6001],
[169,"CDISCPILOT01","703","703","01-703-1379",19623,19803,"Xanomeline Low Dose",54,81,">80",3,"BLACK OR AFRICAN AMERICAN",2,"F","Y","Y","Y","Week 16",16,"WEEK 16",10,112,19734,"CIBICVAL","CIBIC Score",1,4,"Y","","85-140",112,0,85,140,"DAYS",6002],
[170,"CDISCPILOT01","703","703","01-703-1379",19623,19803,"Xanomeline Low Dose",54,81,">80",3,"BLACK OR AFRICAN AMERICAN",2,"F","Y","Y","Y","Week 24",24,"WEEK 24",12,168,19790,"CIBICVAL","CIBIC Score",1,5,"Y","",">140",168,0,141,null,"DAYS",6003],
[171,"CDISCPILOT01","703","703","01-703-1439",19794,19977,"Xanomeline High Dose",81,76,"65-80",2,"WHITE",1,"F","Y","Y","Y","Week 8",8,"WEEK 8",8,55,19848,"CIBICVAL","CIBIC Score",1,4,"Y","","2-84",56,1,2,84,"DAYS",6001],
[172,"CDISCPILOT01","703","703","01-703-1439",19794,19977,"Xanomeline High Dose",81,76,"65-80",2,"WHITE",1,"F","Y","Y","Y","Week 16",16,"WEEK 16",10,111,19904,"CIBICVAL","CIBIC Score",1,5,"Y","","85-140",112,1,85,140,"DAYS",6002],
[173,"CDISCPILOT01","703","703","01-703-1439",19794,19977,"Xanomeline High Dose",81,76,"65-80",2,"WHITE",1,"F","Y","Y","Y","Week 24",24,"WEEK 24",12,170,19963,"CIBICVAL","CIBIC Score",1,5,"Y","",">140",168,2,141,null,"DAYS",6003],
[174,"CDISCPILOT01","704","704","01-704-1008",19371,19410,"Xanomeline High Dose",81,76,"65-80",2,"WHITE",1,"F","Y","Y","N","Week 8",8,"WEEK 6",7,44,19414,"CIBICVAL","CIBIC Score",1,5,"Y","","2-84",56,12,2,84,"DAYS",6001],
[175,"CDISCPILOT01","704","704","01-704-1008",19371,19410,"Xanomeline High Dose",81,76,"65-80",2,"WHITE",1,"F","Y","Y","N","Week 16",16,"WEEK 6",7,44,19414,"CIBICVAL","CIBIC Score",1,5,"Y","LOCF","85-140",112,68,85,140,"DAYS",6001],
[176,"CDISCPILOT01","704","704","01-704-1008",19371,19410,"Xanomeline High Dose",81,76,"65-80",2,"WHITE",1,"F","Y","Y","N","Week 24",24,"WEEK 6",7,44,19414,"CIBICVAL","CIBIC Score",1,5,"Y","LOCF",">140",168,124,141,null,"DAYS",6001],
[177,"CDISCPILOT01","704","704","01-704-1009",19597,19626,"Xanomeline Low Dose",54,83,">80",3,"WHITE",1,"M","Y","Y","N","Week 8",8,"WEEK 4",5,37,19633,"CIBICVAL","CIBIC Score",1,4,"Y","","2-84",56,19,2,84,"DAYS",6001],
[178,"CDISCPILOT01","704","704","01-704-1009",19597,19626,"Xanomeline Low Dose",54,83,">80",3,"WHITE",1,"M","Y","Y","N","Week 16",16,"WEEK 4",5,37,19633,"CIBICVAL","CIBIC Score",1,4,"Y","LOCF","85-140",112,75,85,140,"DAYS",6001],
[179,"CDISCPILOT01","704","704","01-704-1009",19597,19626,"Xanomeline Low Dose",54,83,">80",3,"WHITE",1,"M","Y","Y","N","Week 24",24,"WEEK 4",5,37,19633,"CIBICVAL","CIBIC Score",1,4,"Y","LOCF",">140",168,131,141,null,"DAYS",6001],
[180,"CDISCPILOT01","704","704","01-704-1010",19775,19912,"Placebo",0,80,"65-80",2,"WHITE",1,"M","Y","Y","N","Week 8",8,"WEEK 8",8,63,19837,"CIBICVAL","CIBIC Score",1,4,"Y","","2-84",56,7,2,84,"DAYS",6001],
[181,"CDISCPILOT01","704","704","01-704-1010",19775,19912,"Placebo",0,80,"65-80",2,"WHITE",1,"M","Y","Y","N","Week 16",16,"WEEK 16",10,113,19887,"CIBICVAL","CIBIC Score",1,3,"Y","","85-140",112,1,85,140,"DAYS",6002],
[182,"CDISCPILOT01","704","704","01-704-1010",19775,19912,"Placebo",0,80,"65-80",2,"WHITE",1,"M","Y","Y","N","Week 16",16,"WEEK 20",11,139,19913,"CIBICVAL","CIBIC Score",1,3,"","","85-140",112,27,85,140,"DAYS",6003],
[183,"CDISCPILOT01","704","704","01-704-1010",19775,19912,"Placebo",0,80,"65-80",2,"WHITE",1,"M","Y","Y","N","Week 24",24,"WEEK 20",11,139,19913,"CIBICVAL","CIBIC Score",1,3,"Y","LOCF",">140",168,29,141,null,"DAYS",6003],
[184,"CDISCPILOT01","704","704","01-704-1017",19637,19680,"Xanomeline High Dose",81,77,"65-80",2,"WHITE",1,"M","Y","Y","N","Week 8",8,"WEEK 6",7,50,19686,"CIBICVAL","CIBIC Score",1,4,"Y","","2-84",56,6,2,84,"DAYS",6001],
[185,"CDISCPILOT01","704","704","01-704-1017",19637,19680,"Xanomeline High Dose",81,77,"65-80",2,"WHITE",1,"M","Y","Y","N","Week 16",16,"WEEK 6",7,50,19686,"CIBICVAL","CIBIC Score",1,4,"Y","LOCF","85-140",112,62,85,140,"DAYS",6001],
[186,"CDISCPILOT01","704","704","01-704-1017",19637,19680,"Xanomeline High Dose",81,77,"65-80",2,"WHITE",1,"M","Y","Y","N","Week 24",24,"WEEK 6",7,50,19686,"CIBICVAL","CIBIC Score",1,4,"Y","LOCF",">140",168,118,141,null,"DAYS",6001],
[187,"CDISCPILOT01","704","704","01-704-1025",19628,19655,"Xanomeline Low Dose",54,81,">80",3,"WHITE",1,"F","Y","Y","N","Week 8",8,"AMBUL ECG REMOVAL",6,64,19691,"CIBICVAL","CIBIC Score",1,4,"Y","","2-84",56,8,2,84,"DAYS",6001],
[188,"CDISCPILOT01","704","704","01-704-1025",19628,19655,"Xanomeline Low Dose",54,81,">80",3,"WHITE",1,"F","Y","Y","N","Week 16",16,"AMBUL ECG REMOVAL",6,64,19691,"CIBICVAL","CIBIC Score",1,4,"Y","LOCF","85-140",112,48,85,140,"DAYS",6001],
[189,"CDISCPILOT01","704","704","01-704-1025",19628,19655,"Xanomeline Low Dose",54,81,">80",3,"WHITE",1,"F","Y","Y","N","Week 24",24,"AMBUL ECG REMOVAL",6,64,19691,"CIBICVAL","CIBIC Score",1,4,"Y","LOCF",">140",168,104,141,null,"DAYS",6001],
[190,"CDISCPILOT01","704","704","01-704-1065",19655,19714,"Xanomeline High Dose",81,75,"65-80",2,"WHITE",1,"M","Y","Y","N","Week 8",8,"WEEK 8",8,58,19712,"CIBICVAL","CIBIC Score",1,4,"Y","","2-84",56,2,2,84,"DAYS",6001],
[191,"CDISCPILOT01","704","704","01-704-1065",19655,19714,"Xanomeline High Dose",81,75,"65-80",2,"WHITE",1,"M","Y","Y","N","Week 8",8,"WEEK 12",9,62,19716,"CIBICVAL","CIBIC Score",1,5,"","","2-84",56,6,2,84,"DAYS",6002],
[192,"CDISCPILOT01","704","704","01-704-1065",19655,19714,"Xanomeline High Dose",81,75,"65-80",2,"WHITE",1,"M","Y","Y","N","Week 16",16,"WEEK 12",9,62,19716,"CIBICVAL","CIBIC Score",1,4,"Y","LOCF","85-140",112,50,85,140,"DAYS",6002],
[193,"CDISCPILOT01","704","704","01-704-1065",19655,19714,"Xanomeline High Dose",81,75,"65-80",2,"WHITE",1,"M","Y","Y","N","Week 24",24,"WEEK 12",9,62,19716,"CIBICVAL","CIBIC Score",1,4,"Y","LOCF",">140",168,106,141,null,"DAYS",6002],
[194,"CDISCPILOT01","704","704","01-704-1074",19745,19802,"Xanomeline High Dose",81,80,"65-80",2,"WHITE",1,"F","Y","Y","N","Week 8",8,"WEEK 8",8,69,19813,"CIBICVAL","CIBIC Score",1,4,"Y","","2-84",56,13,2,84,"DAYS",6001],
[195,"CDISCPILOT01","704","704","01-704-1074",19745,19802,"Xanomeline High Dose",81,80,"65-80",2,"WHITE",1,"F","Y","Y","N","Week 16",16,"WEEK 8",8,69,19813,"CIBICVAL","CIBIC Score",1,4,"Y","LOCF","85-140",112,43,85,140,"DAYS",6001],
[196,"CDISCPILOT01","704","704","01-704-1074",19745,19802,"Xanomeline High Dose",81,80,"65-80",2,"WHITE",1,"F","Y","Y","N","Week 24",24,"WEEK 8",8,69,19813,"CIBICVAL","CIBIC Score",1,4,"Y","LOCF",">140",168,99,141,null,"DAYS",6001],
[197,"CDISCPILOT01","704","704","01-704-1093",19432,19526,"Xanomeline High Dose",81,79,"65-80",2,"WHITE",1,"M","Y","Y","N","Week 8",8,"WEEK 8",8,58,19489,"CIBICVAL","CIBIC Score",1,4,"Y","","2-84",56,2,2,84,"DAYS",6001],
[198,"CDISCPILOT01","704","704","01-704-1093",19432,19526,"Xanomeline High Dose",81,79,"65-80",2,"WHITE",1,"M","Y","Y","N","Week 16",16,"WEEK 16",10,98,19529,"CIBICVAL","CIBIC Score",1,4,"Y","","85-140",112,14,85,140,"DAYS",6002],
[199,"CDISCPILOT01","704","704","01-704-1093",19432,19526,"Xanomeline High Dose",81,79,"65-80",2,"WHITE",1,"M","Y","Y","N","Week 24",24,"RETRIEVAL",201,286,19717,"CIBICVAL","CIBIC Score",1,6,"Y","",">140",168,118,141,null,"DAYS",6003],
[200,"CDISCPILOT01","704","704","01-704-1114",19381,19546,"Xanomeline Low Dose",54,77,"65-80",2,"WHITE",1,"M","Y","Y","Y","Week 8",8,"WEEK 8",8,63,19443,"CIBICVAL","CIBIC Score",1,4,"Y","","2-84",56,7,2,84,"DAYS",6001],
[201,"CDISCPILOT01","704","704","01-704-1114",19381,19546,"Xanomeline Low Dose",54,77,"65-80",2,"WHITE",1,"M","Y","Y","Y","Week 16",16,"WEEK 16",10,112,19492,"CIBICVAL","CIBIC Score",1,4,"Y","","85-140",112,0,85,140,"DAYS",6002],
[202,"CDISCPILOT01","704","704","01-704-1114",19381,19546,"Xanomeline Low Dose",54,77,"65-80",2,"WHITE",1,"M","Y","Y","Y","Week 24",24,"WEEK 24",12,167,19547,"CIBICVAL","CIBIC Score",1,4,"Y","",">140",168,1,141,null,"DAYS",6003],
[203,"CDISCPILOT01","704","704","01-704-1120",19694,19755,"Xanomeline Low Dose",54,71,"65-80",2,"WHITE",1,"F","Y","Y","N","Week 8",8,"WEEK 8",8,57,19750,"CIBICVAL","CIBIC Score",1,4,"Y","","2-84",56,1,2,84,"DAYS",6001],
[204,"CDISCPILOT01","704","704","01-704-1120",19694,19755,"Xanomeline Low Dose",54,71,"65-80",2,"WHITE",1,"F","Y","Y","N","Week 8",8,"WEEK 12",9,64,19757,"CIBICVAL","CIBIC Score",1,4,"","","2-84",56,8,2,84,"DAYS",6002],
[205,"CDISCPILOT01","704","704","01-704-1120",19694,19755,"Xanomeline Low Dose",54,71,"65-80",2,"WHITE",1,"F","Y","Y","N","Week 16",16,"WEEK 12",9,64,19757,"CIBICVAL","CIBIC Score",1,4,"Y","LOCF","85-140",112,48,85,140,"DAYS",6002],
[206,"CDISCPILOT01","704","704","01-704-1120",19694,19755,"Xanomeline Low Dose",54,71,"65-80",2,"WHITE",1,"F","Y","Y","N","Week 24",24,"WEEK 12",9,64,19757,"CIBICVAL","CIBIC Score",1,4,"Y","LOCF",">140",168,104,141,null,"DAYS",6002],
[207,"CDISCPILOT01","704","704","01-704-1127",19633,19813,"Placebo",0,84,">80",3,"WHITE",1,"F","Y","Y","Y","Week 8",8,"WEEK 8",8,56,19688,"CIBICVAL","CIBIC Score",1,4,"Y","","2-84",56,0,2,84,"DAYS",6001],
[208,"CDISCPILOT01","704","704","01-704-1127",19633,19813,"Placebo",0,84,">80",3,"WHITE",1,"F","Y","Y","Y","Week 16",16,"WEEK 16",10,112,19744,"CIBICVAL","CIBIC Score",1,5,"Y","","85-140",112,0,85,140,"DAYS",6002],
[209,"CDISCPILOT01","704","704","01-704-1127",19633,19813,"Placebo",0,84,">80",3,"WHITE",1,"F","Y","Y","Y","Week 24",24,"WEEK 24",12,167,19799,"CIBICVAL","CIBIC Score",1,5,"Y","",">140",168,1,141,null,"DAYS",6003],
[210,"CDISCPILOT01","704","704","01-704-1135",19662,19859,"Xanomeline Low Dose",54,74,"65-80",2,"WHITE",1,"F","Y","Y","Y","Week 8",8,"WEEK 8",8,56,19717,"CIBICVAL","CIBIC Score",1,4,"Y","","2-84",56,0,2,84,"DAYS",6001],
[211,"CDISCPILOT01","704","704","01-704-1135",19662,19859,"Xanomeline Low Dose",54,74,"65-80",2,"WHITE",1,"F","Y","Y","Y","Week 16",16,"WEEK 16",10,112,19773,"CIBICVAL","CIBIC Score",1,4,"Y","","85-140",112,0,85,140,"DAYS",6002],
[212,"CDISCPILOT01","704","704","01-704-1135",19662,19859,"Xanomeline Low Dose",54,74,"65-80",2,"WHITE",1,"F","Y","Y","Y","Week 24",24,"WEEK 24",12,183,19844,"CIBICVAL","CIBIC Score",1,6,"Y","",">140",168,15,141,null,"DAYS",6003],
[213,"CDISCPILOT01","704","704","01-704-1164",19255,19452,"Placebo",0,67,"65-80",2,"WHITE",1,"F","Y","Y","Y","Week 8",8,"WEEK 8",8,58,19312,"CIBICVAL","CIBIC Score",1,4,"Y","","2-84",56,2,2,84,"DAYS",6001],
[214,"CDISCPILOT01","704","704","01-704-1164",19255,19452,"Placebo",0,67,"65-80",2,"WHITE",1,"F","Y","Y","Y","Week 16",16,"WEEK 16",10,118,19372,"CIBICVAL","CIBIC Score",1,5,"Y","","85-140",112,6,85,140,"DAYS",6002],
[215,"CDISCPILOT01","704","704","01-704-1164",19255,19452,"Placebo",0,67,"65-80",2,"WHITE",1,"F","Y","Y","Y","Week 24",24,"WEEK 24",12,180,19434,"CIBICVAL","CIBIC Score",1,5,"Y","",">140",168,12,141,null,"DAYS",6003],
[216,"CDISCPILOT01","704","704","01-704-1218",19316,19505,"Xanomeline Low Dose",54,81,">80",3,"WHITE",1,"F","Y","Y","Y","Week 8",8,"WEEK 8",8,57,19372,"CIBICVAL","CIBIC Score",1,5,"Y","","2-84",56,1,2,84,"DAYS",6001],
[217,"CDISCPILOT01","704","704","01-704-1218",19316,19505,"Xanomeline Low Dose",54,81,">80",3,"WHITE",1,"F","Y","Y","Y","Week 16",16,"WEEK 16",10,120,19435,"CIBICVAL","CIBIC Score",1,5,"Y","","85-140",112,8,85,140,"DAYS",6002],
[218,"CDISCPILOT01","704","704","01-704-1218",19316,19505,"Xanomeline Low Dose",54,81,">80",3,"WHITE",1,"F","Y","Y","Y","Week 24",24,"WEEK 24",12,176,19491,"CIBICVAL","CIBIC Score",1,5,"Y","",">140",168,8,141,null,"DAYS",6003],
[219,"CDISCPILOT01","704","704","01-704-1233",19438,19553,"Placebo",0,87,">80",3,"WHITE",1,"F","Y","Y","N","Week 16",16,"WEEK 16",10,113,19550,"CIBICVAL","CIBIC Score",1,5,"Y","","85-140",112,1,85,140,"DAYS",6001],
[220,"CDISCPILOT01","704","704","01-704-1233",19438,19553,"Placebo",0,87,">80",3,"WHITE",1,"F","Y","Y","N","Week 24",24,"WEEK 16",10,113,19550,"CIBICVAL","CIBIC Score",1,5,"Y","LOCF",">140",168,55,141,null,"DAYS",6001],
[221,"CDISCPILOT01","704","704","01-704-1241",19595,19640,"Xanomeline High Dose",81,86,">80",3,"WHITE",1,"M","Y","Y","N","Week 8",8,"WEEK 8",8,68,19662,"CIBICVAL","CIBIC Score",1,4,"Y","","2-84",56,12,2,84,"DAYS",6001],
[222,"CDISCPILOT01","704","704","01-704-1241",19595,19640,"Xanomeline High Dose",81,86,">80",3,"WHITE",1,"M","Y","Y","N","Week 16",16,"WEEK 8",8,68,19662,"CIBICVAL","CIBIC Score",1,4,"Y","LOCF","85-140",112,44,85,140,"DAYS",6001],
[223,"CDISCPILOT01","704","704","01-704-1241",19595,19640,"Xanomeline High Dose",81,86,">80",3,"WHITE",1,"M","Y","Y","N","Week 24",24,"WEEK 8",8,68,19662,"CIBICVAL","CIBIC Score",1,4,"Y","LOCF",">140",168,100,141,null,"DAYS",6001],
[224,"CDISCPILOT01","704","704","01-704-1260",19235,19301,"Placebo",0,71,"65-80",2,"WHITE",1,"F","Y","Y","N","Week 8",8,"WEEK 8",8,56,19290,"CIBICVAL","CIBIC Score",1,4,"Y","","2-84",56,0,2,84,"DAYS",6001],
[225,"CDISCPILOT01","704","704","01-704-1260",19235,19301,"Placebo",0,71,"65-80",2,"WHITE",1,"F","Y","Y","N","Week 16",16,"WEEK 8",8,56,19290,"CIBICVAL","CIBIC Score",1,4,"Y","LOCF","85-140",112,56,85,140,"DAYS",6001],
[226,"CDISCPILOT01","704","704","01-704-1260",19235,19301,"Placebo",0,71,"65-80",2,"WHITE",1,"F","Y","Y","N","Week 24",24,"WEEK 8",8,56,19290,"CIBICVAL","CIBIC Score",1,4,"Y","LOCF",">140",168,112,141,null,"DAYS",6001],
[227,"CDISCPILOT01","704","704","01-704-1266",19644,19698,"Xanomeline High Dose",81,82,">80",3,"WHITE",1,"M","Y","Y","N","Week 8",8,"WEEK 8",8,55,19698,"CIBICVAL","CIBIC Score",1,4,"Y","","2-84",56,1,2,84,"DAYS",6001],
[228,"CDISCPILOT01","704","704","01-704-1266",19644,19698,"Xanomeline High Dose",81,82,">80",3,"WHITE",1,"M","Y","Y","N","Week 16",16,"WEEK 8",8,55,19698,"CIBICVAL","CIBIC Score",1,4,"Y","LOCF","85-140",112,57,85,140,"DAYS",6001],
[229,"CDISCPILOT01","704","704","01-704-1266",19644,19698,"Xanomeline High Dose",81,82,">80",3,"WHITE",1,"M","Y","Y","N","Week 24",24,"WEEK 8",8,55,19698,"CIBICVAL","CIBIC Score",1,4,"Y","LOCF",">140",168,113,141,null,"DAYS",6001],
[230,"CDISCPILOT01","704","704","01-704-1325",19836,19908,"Xanomeline Low Dose",54,81,">80",3,"WHITE",1,"M","Y","Y","N","Week 8",8,"WEEK 8",8,57,19892,"CIBICVAL","CIBIC Score",1,4,"Y","","2-84",56,1,2,84,"DAYS",6001],
[231,"CDISCPILOT01","704","704","01-704-1325",19836,19908,"Xanomeline Low Dose",54,81,">80",3,"WHITE",1,"M","Y","Y","N","Week 16",16,"WEEK 16",10,106,19941,"CIBICVAL","CIBIC Score",1,4,"Y","","85-140",112,6,85,140,"DAYS",6002],
[232,"CDISCPILOT01","704","704","01-704-1325",19836,19908,"Xanomeline Low Dose",54,81,">80",3,"WHITE",1,"M","Y","Y","N","Week 24",24,"WEEK 16",10,106,19941,"CIBICVAL","CIBIC Score",1,4,"Y","LOCF",">140",168,62,141,null,"DAYS",6002],
[233,"CDISCPILOT01","704","704","01-704-1332",19701,19768,"Xanomeline High Dose",81,80,"65-80",2,"WHITE",1,"M","Y","Y","N","Week 8",8,"WEEK 8",8,57,19757,"CIBICVAL","CIBIC Score",1,4,"Y","","2-84",56,1,2,84,"DAYS",6001],
[234,"CDISCPILOT01","704","704","01-704-1332",19701,19768,"Xanomeline High Dose",81,80,"65-80",2,"WHITE",1,"M","Y","Y","N","Week 16",16,"WEEK 8",8,57,19757,"CIBICVAL","CIBIC Score",1,4,"Y","LOCF","85-140",112,55,85,140,"DAYS",6001],
[235,"CDISCPILOT01","704","704","01-704-1332",19701,19768,"Xanomeline High Dose",81,80,"65-80",2,"WHITE",1,"M","Y","Y","N","Week 24",24,"WEEK 8",8,57,19757,"CIBICVAL","CIBIC Score",1,4,"Y","LOCF",">140",168,111,141,null,"DAYS",6001],
[236,"CDISCPILOT01","704","704","01-704-1351",19643,19831,"Placebo",0,70,"65-80",2,"WHITE",1,"M","Y","Y","Y","Week 8",8,"WEEK 8",8,52,19694,"CIBICVAL","CIBIC Score",1,4,"Y","","2-84",56,4,2,84,"DAYS",6001],
[237,"CDISCPILOT01","704","704","01-704-1351",19643,19831,"Placebo",0,70,"65-80",2,"WHITE",1,"M","Y","Y","Y","Week 16",16,"WEEK 16",10,107,19749,"CIBICVAL","CIBIC Score",1,4,"Y","","85-140",112,5,85,140,"DAYS",6002],
[238,"CDISCPILOT01","704","704","01-704-1351",19643,19831,"Placebo",0,70,"65-80",2,"WHITE",1,"M","Y","Y","Y","Week 24",24,"WEEK 24",12,175,19817,"CIBICVAL","CIBIC Score",1,5,"Y","",">140",168,7,141,null,"DAYS",6003],
[239,"CDISCPILOT01","704","704","01-704-1388",19334,19520,"Placebo",0,81,">80",3,"WHITE",1,"M","Y","Y","Y","Week 8",8,"WEEK 8",8,55,19388,"CIBICVAL","CIBIC Score",1,4,"Y","","2-84",56,1,2,84,"DAYS",6001],
[240,"CDISCPILOT01","704","704","01-704-1388",19334,19520,"Placebo",0,81,">80",3,"WHITE",1,"M","Y","Y","Y","Week 16",16,"WEEK 16",10,111,19444,"CIBICVAL","CIBIC Score",1,4,"Y","","85-140",112,1,85,140,"DAYS",6002],
[241,"CDISCPILOT01","704","704","01-704-1388",19334,19520,"Placebo",0,81,">80",3,"WHITE",1,"M","Y","Y","Y","Week 24",24,"WEEK 24",12,168,19501,"CIBICVAL","CIBIC Score",1,4,"Y","",">140",168,0,141,null,"DAYS",6003],
[242,"CDISCPILOT01","704","704","01-704-1435",19314,19367,"Placebo",0,74,"65-80",2,"WHITE",1,"M","Y","Y","N","Week 8",8,"WEEK 8",8,57,19370,"CIBICVAL","CIBIC Score",1,4,"Y","","2-84",56,1,2,84,"DAYS",6001],
[243,"CDISCPILOT01","704","704","01-704-1435",19314,19367,"Placebo",0,74,"65-80",2,"WHITE",1,"M","Y","Y","N","Week 16",16,"WEEK 8",8,57,19370,"CIBICVAL","CIBIC Score",1,4,"Y","LOCF","85-140",112,55,85,140,"DAYS",6001],
[244,"CDISCPILOT01","704","704","01-704-1435",19314,19367,"Placebo",0,74,"65-80",2,"WHITE",1,"M","Y","Y","N","Week 24",24,"WEEK 8",8,57,19370,"CIBICVAL","CIBIC Score",1,4,"Y","LOCF",">140",168,111,141,null,"DAYS",6001],
[245,"CDISCPILOT01","704","704","01-704-1445",19854,20028,"Placebo",0,75,"65-80",2,"WHITE",1,"M","Y","Y","Y","Week 8",8,"WEEK 8",8,60,19913,"CIBICVAL","CIBIC Score",1,6,"Y","","2-84",56,4,2,84,"DAYS",6001],
[246,"CDISCPILOT01","704","704","01-704-1445",19854,20028,"Placebo",0,75,"65-80",2,"WHITE",1,"M","Y","Y","Y","Week 16",16,"WEEK 16",10,116,19969,"CIBICVAL","CIBIC Score",1,5,"Y","","85-140",112,4,85,140,"DAYS",6002],
[247,"CDISCPILOT01","704","704","01-704-1445",19854,20028,"Placebo",0,75,"65-80",2,"WHITE",1,"M","Y","Y","Y","Week 24",24,"WEEK 16",10,116,19969,"CIBICVAL","CIBIC Score",1,5,"Y","LOCF",">140",168,52,141,null,"DAYS",6002],
[248,"CDISCPILOT01","705","705","01-705-1031",19689,19854,"Xanomeline Low Dose",54,56,"<65",1,"WHITE",1,"F","Y","Y","Y","Week 8",8,"WEEK 8",8,58,19746,"CIBICVAL","CIBIC Score",1,4,"Y","","2-84",56,2,2,84,"DAYS",6001],
[249,"CDISCPILOT01","705","705","01-705-1031",19689,19854,"Xanomeline Low Dose",54,56,"<65",1,"WHITE",1,"F","Y","Y","Y","Week 16",16,"WEEK 16",10,114,19802,"CIBICVAL","CIBIC Score",1,4,"Y","","85-140",112,2,85,140,"DAYS",6002],
[250,"CDISCPILOT01","705","705","01-705-1031",19689,19854,"Xanomeline Low Dose",54,56,"<65",1,"WHITE",1,"F","Y","Y","Y","Week 24",24,"WEEK 24",12,166,19854,"CIBICVAL","CIBIC Score",1,4,"Y","",">140",168,2,141,null,"DAYS",6003],
[251,"CDISCPILOT01","705","705","01-705-1059",19575,19697,"Placebo",0,66,"65-80",2,"WHITE",1,"F","Y","Y","N","Week 8",8,"WEEK 8",8,60,19634,"CIBICVAL","CIBIC Score",1,3,"Y","","2-84",56,4,2,84,"DAYS",6001],
[252,"CDISCPILOT01","705","705","01-705-1059",19575,19697,"Placebo",0,66,"65-80",2,"WHITE",1,"F","Y","Y","N","Week 16",16,"WEEK 16",10,123,19697,"CIBICVAL","CIBIC Score",1,3,"Y","","85-140",112,11,85,140,"DAYS",6002],
[253,"CDISCPILOT01","705","705","01-705-1059",19575,19697,"Placebo",0,66,"65-80",2,"WHITE",1,"F","Y","Y","N","Week 24",24,"RETRIEVAL",201,186,19760,"CIBICVAL","CIBIC Score",1,3,"Y","",">140",168,18,141,null,"DAYS",6003],
[254,"CDISCPILOT01","705","705","01-705-1186",19731,19749,"Placebo",0,84,">80",3,"WHITE",1,"F","Y","N","N","Week 8",8,"WEEK 4",5,31,19761,"CIBICVAL","CIBIC Score",1,4,"Y","","2-84",56,25,2,84,"DAYS",6001],
[255,"CDISCPILOT01","705","705","01-705-1186",19731,19749,"Placebo",0,84,">80",3,"WHITE",1,"F","Y","N","N","Week 16",16,"WEEK 4",5,31,19761,"CIBICVAL","CIBIC Score",1,4,"Y","LOCF","85-140",112,81,85,140,"DAYS",6001],
[256,"CDISCPILOT01","705","705","01-705-1186",19731,19749,"Placebo",0,84,">80",3,"WHITE",1,"F","Y","N","N","Week 24",24,"WEEK 4",5,31,19761,"CIBICVAL","CIBIC Score",1,4,"Y","LOCF",">140",168,137,141,null,"DAYS",6001],
[257,"CDISCPILOT01","705","705","01-705-1199",19617,19629,"Xanomeline Low Dose",54,87,">80",3,"WHITE",1,"M","Y","Y","N","Week 8",8,"WEEK 2",4,14,19630,"CIBICVAL","CIBIC Score",1,4,"Y","","2-84",56,42,2,84,"DAYS",6001],
[258,"CDISCPILOT01","705","705","01-705-1199",19617,19629,"Xanomeline Low Dose",54,87,">80",3,"WHITE",1,"M","Y","Y","N","Week 16",16,"WEEK 2",4,14,19630,"CIBICVAL","CIBIC Score",1,4,"Y","LOCF","85-140",112,98,85,140,"DAYS",6001],
[259,"CDISCPILOT01","705","705","01-705-1199",19617,19629,"Xanomeline Low Dose",54,87,">80",3,"WHITE",1,"M","Y","Y","N","Week 24",24,"WEEK 2",4,14,19630,"CIBICVAL","CIBIC Score",1,4,"Y","LOCF",">140",168,154,141,null,"DAYS",6001],
[260,"CDISCPILOT01","705","705","01-705-1280",19740,19929,"Xanomeline High Dose",81,56,"<65",1,"WHITE",1,"F","Y","Y","Y","Week 8",8,"WEEK 8",8,64,19803,"CIBICVAL","CIBIC Score",1,4,"Y","","2-84",56,8,2,84,"DAYS",6001],
[261,"CDISCPILOT01","705","705","01-705-1280",19740,19929,"Xanomeline High Dose",81,56,"<65",1,"WHITE",1,"F","Y","Y","Y","Week 16",16,"WEEK 16",10,120,19859,"CIBICVAL","CIBIC Score",1,4,"Y","","85-140",112,8,85,140,"DAYS",6002],
[262,"CDISCPILOT01","705","705","01-705-1280",19740,19929,"Xanomeline High Dose",81,56,"<65",1,"WHITE",1,"F","Y","Y","Y","Week 24",24,"WEEK 24",12,176,19915,"CIBICVAL","CIBIC Score",1,4,"Y","",">140",168,8,141,null,"DAYS",6003],
[263,"CDISCPILOT01","705","705","01-705-1281",19690,19781,"Xanomeline High Dose",81,73,"65-80",2,"BLACK OR AFRICAN AMERICAN",2,"F","Y","Y","N","Week 8",8,"WEEK 8",8,55,19744,"CIBICVAL","CIBIC Score",1,4,"Y","","2-84",56,1,2,84,"DAYS",6001],
[264,"CDISCPILOT01","705","705","01-705-1281",19690,19781,"Xanomeline High Dose",81,73,"65-80",2,"BLACK OR AFRICAN AMERICAN",2,"F","Y","Y","N","Week 16",16,"WEEK 16",10,110,19799,"CIBICVAL","CIBIC Score",1,4,"Y","","85-140",112,2,85,140,"DAYS",6002],
[265,"CDISCPILOT01","705","705","01-705-1281",19690,19781,"Xanomeline High Dose",81,73,"65-80",2,"BLACK OR AFRICAN AMERICAN",2,"F","Y","Y","N","Week 24",24,"WEEK 16",10,110,19799,"CIBICVAL","CIBIC Score",1,4,"Y","LOCF",">140",168,58,141,null,"DAYS",6002],
[266,"CDISCPILOT01","705","705","01-705-1282",19353,19533,"Placebo",0,70,"65-80",2,"BLACK OR AFRICAN AMERICAN",2,"F","Y","Y","Y","Week 8",8,"WEEK 8",8,57,19409,"CIBICVAL","CIBIC Score",1,4,"Y","","2-84",56,1,2,84,"DAYS",6001],
[267,"CDISCPILOT01","705","705","01-705-1282",19353,19533,"Placebo",0,70,"65-80",2,"BLACK OR AFRICAN AMERICAN",2,"F","Y","Y","Y","Week 16",16,"WEEK 16",10,112,19464,"CIBICVAL","CIBIC Score",1,4,"Y","","85-140",112,0,85,140,"DAYS",6002],
[268,"CDISCPILOT01","705","705","01-705-1282",19353,19533,"Placebo",0,70,"65-80",2,"BLACK OR AFRICAN AMERICAN",2,"F","Y","Y","Y","Week 24",24,"WEEK 24",12,168,19520,"CIBICVAL","CIBIC Score",1,4,"Y","",">140",168,0,141,null,"DAYS",6003],
[269,"CDISCPILOT01","705","705","01-705-1292",19645,19856,"Xanomeline Low Dose",54,60,"<65",1,"BLACK OR AFRICAN AMERICAN",2,"F","Y","Y","Y","Week 8",8,"WEEK 8",8,81,19725,"CIBICVAL","CIBIC Score",1,4,"Y","","2-84",56,25,2,84,"DAYS",6001],
[270,"CDISCPILOT01","705","705","01-705-1292",19645,19856,"Xanomeline Low Dose",54,60,"<65",1,"BLACK OR AFRICAN AMERICAN",2,"F","Y","Y","Y","Week 16",16,"WEEK 8",8,81,19725,"CIBICVAL","CIBIC Score",1,4,"Y","LOCF","85-140",112,31,85,140,"DAYS",6001],
[271,"CDISCPILOT01","705","705","01-705-1292",19645,19856,"Xanomeline Low Dose",54,60,"<65",1,"BLACK OR AFRICAN AMERICAN",2,"F","Y","Y","Y","Week 24",24,"WEEK 16",10,141,19785,"CIBICVAL","CIBIC Score",1,4,"Y","",">140",168,27,141,null,"DAYS",6002],
[272,"CDISCPILOT01","705","705","01-705-1292",19645,19856,"Xanomeline Low Dose",54,60,"<65",1,"BLACK OR AFRICAN AMERICAN",2,"F","Y","Y","Y","Week 24",24,"WEEK 24",12,197,19841,"CIBICVAL","CIBIC Score",1,3,"","",">140",168,29,141,null,"DAYS",6003],
[273,"CDISCPILOT01","705","705","01-705-1303",19708,19876,"Xanomeline High Dose",81,72,"65-80",2,"WHITE",1,"M","Y","Y","N","Week 8",8,"WEEK 8",8,57,19764,"CIBICVAL","CIBIC Score",1,4,"Y","","2-84",56,1,2,84,"DAYS",6001],
[274,"CDISCPILOT01","705","705","01-705-1303",19708,19876,"Xanomeline High Dose",81,72,"65-80",2,"WHITE",1,"M","Y","Y","N","Week 16",16,"WEEK 16",10,113,19820,"CIBICVAL","CIBIC Score",1,4,"Y","","85-140",112,1,85,140,"DAYS",6002],
[275,"CDISCPILOT01","705","705","01-705-1303",19708,19876,"Xanomeline High Dose",81,72,"65-80",2,"WHITE",1,"M","Y","Y","N","Week 24",24,"WEEK 16",10,113,19820,"CIBICVAL","CIBIC Score",1,4,"Y","LOCF",">140",168,55,141,null,"DAYS",6002],
[276,"CDISCPILOT01","705","705","01-705-1310",19664,19746,"Xanomeline High Dose",81,74,"65-80",2,"WHITE",1,"F","Y","Y","N","Week 8",8,"WEEK 8",8,55,19718,"CIBICVAL","CIBIC Score",1,4,"Y","","2-84",56,1,2,84,"DAYS",6001],
[277,"CDISCPILOT01","705","705","01-705-1310",19664,19746,"Xanomeline High Dose",81,74,"65-80",2,"WHITE",1,"F","Y","Y","N","Week 8",8,"WEEK 12",9,83,19746,"CIBICVAL","CIBIC Score",1,3,"","","2-84",56,27,2,84,"DAYS",6002],
[278,"CDISCPILOT01","705","705","01-705-1310",19664,19746,"Xanomeline High Dose",81,74,"65-80",2,"WHITE",1,"F","Y","Y","N","Week 16",16,"WEEK 12",9,83,19746,"CIBICVAL","CIBIC Score",1,4,"Y","LOCF","85-140",112,29,85,140,"DAYS",6002],
[279,"CDISCPILOT01","705","705","01-705-1310",19664,19746,"Xanomeline High Dose",81,74,"65-80",2,"WHITE",1,"F","Y","Y","N","Week 24",24,"WEEK 12",9,83,19746,"CIBICVAL","CIBIC Score",1,4,"Y","LOCF",">140",168,85,141,null,"DAYS",6002],
[280,"CDISCPILOT01","705","705","01-705-1349",19427,19609,"Placebo",0,86,">80",3,"WHITE",1,"F","Y","Y","Y","Week 8",8,"WEEK 8",8,53,19479,"CIBICVAL","CIBIC Score",1,3,"Y","","2-84",56,3,2,84,"DAYS",6001],
[281,"CDISCPILOT01","705","705","01-705-1349",19427,19609,"Placebo",0,86,">80",3,"WHITE",1,"F","Y","Y","Y","Week 16",16,"WEEK 16",10,108,19534,"CIBICVAL","CIBIC Score",1,4,"Y","","85-140",112,4,85,140,"DAYS",6002],
[282,"CDISCPILOT01","705","705","01-705-1349",19427,19609,"Placebo",0,86,">80",3,"WHITE",1,"F","Y","Y","Y","Week 24",24,"WEEK 24",12,169,19595,"CIBICVAL","CIBIC Score",1,3,"Y","",">140",168,1,141,null,"DAYS",6003],
[283,"CDISCPILOT01","705","705","01-705-1393",19243,19390,"Xanomeline Low Dose",54,84,">80",3,"WHITE",1,"F","Y","Y","N","Week 8",8,"WEEK 8",8,57,19299,"CIBICVAL","CIBIC Score",1,4,"Y","","2-84",56,1,2,84,"DAYS",6001],
[284,"CDISCPILOT01","705","705","01-705-1393",19243,19390,"Xanomeline Low Dose",54,84,">80",3,"WHITE",1,"F","Y","Y","N","Week 16",16,"WEEK 16",10,118,19360,"CIBICVAL","CIBIC Score",1,4,"Y","","85-140",112,6,85,140,"DAYS",6002],
[285,"CDISCPILOT01","705","705","01-705-1393",19243,19390,"Xanomeline Low Dose",54,84,">80",3,"WHITE",1,"F","Y","Y","N","Week 24",24,"WEEK 20",11,167,19409,"CIBICVAL","CIBIC Score",1,5,"Y","",">140",168,1,141,null,"DAYS",6003],
[286,"CDISCPILOT01","705","705","01-705-1431",19532,19711,"Xanomeline Low Dose",54,68,"65-80",2,"WHITE",1,"F","Y","Y","Y","Week 8",8,"WEEK 8",8,60,19591,"CIBICVAL","CIBIC Score",1,4,"Y","","2-84",56,4,2,84,"DAYS",6001],
[287,"CDISCPILOT01","705","705","01-705-1431",19532,19711,"Xanomeline Low Dose",54,68,"65-80",2,"WHITE",1,"F","Y","Y","Y","Week 16",16,"WEEK 16",10,117,19648,"CIBICVAL","CIBIC Score",1,3,"Y","","85-140",112,5,85,140,"DAYS",6002],
[288,"CDISCPILOT01","705","705","01-705-1431",19532,19711,"Xanomeline Low Dose",54,68,"65-80",2,"WHITE",1,"F","Y","Y","Y","Week 24",24,"WEEK 24",12,166,19697,"CIBICVAL","CIBIC Score",1,3,"Y","",">140",168,2,141,null,"DAYS",6003],
[289,"CDISCPILOT01","706","900","01-706-1041",19723,19932,"Placebo",0,64,"<65",1,"BLACK OR AFRICAN AMERICAN",2,"F","Y","Y","Y","Week 8",8,"WEEK 8",8,64,19786,"CIBICVAL","CIBIC Score",1,4,"Y","","2-84",56,8,2,84,"DAYS",6001],
[290,"CDISCPILOT01","706","900","01-706-1041",19723,19932,"Placebo",0,64,"<65",1,"BLACK OR AFRICAN AMERICAN",2,"F","Y","Y","Y","Week 16",16,"WEEK 16",10,127,19849,"CIBICVAL","CIBIC Score",1,5,"Y","","85-140",112,15,85,140,"DAYS",6002],
[291,"CDISCPILOT01","706","900","01-706-1041",19723,19932,"Placebo",0,64,"<65",1,"BLACK OR AFRICAN AMERICAN",2,"F","Y","Y","Y","Week 24",24,"WEEK 24",12,197,19919,"CIBICVAL","CIBIC Score",1,4,"Y","",">140",168,29,141,null,"DAYS",6003],
[292,"CDISCPILOT01","706","900","01-706-1049",19492,19527,"Xanomeline High Dose",81,60,"<65",1,"WHITE",1,"F","Y","Y","N","Week 8",8,"WEEK 6",7,43,19534,"CIBICVAL","CIBIC Score",1,4,"Y","","2-84",56,13,2,84,"DAYS",6001],
[293,"CDISCPILOT01","706","900","01-706-1049",19492,19527,"Xanomeline High Dose",81,60,"<65",1,"WHITE",1,"F","Y","Y","N","Week 16",16,"WEEK 6",7,43,19534,"CIBICVAL","CIBIC Score",1,4,"Y","LOCF","85-140",112,69,85,140,"DAYS",6001],
[294,"CDISCPILOT01","706","900","01-706-1049",19492,19527,"Xanomeline High Dose",81,60,"<65",1,"WHITE",1,"F","Y","Y","N","Week 24",24,"WEEK 6",7,43,19534,"CIBICVAL","CIBIC Score",1,4,"Y","LOCF",">140",168,125,141,null,"DAYS",6001],
[295,"CDISCPILOT01","706","900","01-706-1384",19251,19260,"Xanomeline Low Dose",54,74,"65-80",2,"WHITE",1,"F","Y","Y","N","Week 8",8,"WEEK 2",4,15,19265,"CIBICVAL","CIBIC Score",1,4,"Y","","2-84",56,41,2,84,"DAYS",6001],
[296,"CDISCPILOT01","706","900","01-706-1384",19251,19260,"Xanomeline Low Dose",54,74,"65-80",2,"WHITE",1,"F","Y","Y","N","Week 16",16,"WEEK 2",4,15,19265,"CIBICVAL","CIBIC Score",1,4,"Y","LOCF","85-140",112,97,85,140,"DAYS",6001],
[297,"CDISCPILOT01","706","900","01-706-1384",19251,19260,"Xanomeline Low Dose",54,74,"65-80",2,"WHITE",1,"F","Y","Y","N","Week 24",24,"WEEK 2",4,15,19265,"CIBICVAL","CIBIC Score",1,4,"Y","LOCF",">140",168,153,141,null,"DAYS",6001],
[298,"CDISCPILOT01","707","900","01-707-1037",19712,19716,"Xanomeline Low Dose",54,72,"65-80",2,"WHITE",1,"F","Y","Y","N","Week 8",8,"WEEK 2",4,20,19731,"CIBICVAL","CIBIC Score",1,4,"Y","","2-84",56,36,2,84,"DAYS",6001],
[299,"CDISCPILOT01","707","900","01-707-1037",19712,19716,"Xanomeline Low Dose",54,72,"65-80",2,"WHITE",1,"F","Y","Y","N","Week 16",16,"WEEK 2",4,20,19731,"CIBICVAL","CIBIC Score",1,4,"Y","LOCF","85-140",112,92,85,140,"DAYS",6001],
[300,"CDISCPILOT01","707","900","01-707-1037",19712,19716,"Xanomeline Low Dose",54,72,"65-80",2,"WHITE",1,"F","Y","Y","N","Week 24",24,"WEEK 2",4,20,19731,"CIBICVAL","CIBIC Score",1,4,"Y","LOCF",">140",168,148,141,null,"DAYS",6001],
[301,"CDISCPILOT01","707","900","01-707-1206",19659,19839,"Placebo",0,65,"65-80",2,"WHITE",1,"M","Y","Y","Y","Week 8",8,"WEEK 8",8,57,19715,"CIBICVAL","CIBIC Score",1,4,"Y","","2-84",56,1,2,84,"DAYS",6001],
[302,"CDISCPILOT01","707","900","01-707-1206",19659,19839,"Placebo",0,65,"65-80",2,"WHITE",1,"M","Y","Y","Y","Week 16",16,"WEEK 16",10,112,19770,"CIBICVAL","CIBIC Score",1,5,"Y","","85-140",112,0,85,140,"DAYS",6002],
[303,"CDISCPILOT01","707","900","01-707-1206",19659,19839,"Placebo",0,65,"65-80",2,"WHITE",1,"M","Y","Y","Y","Week 24",24,"WEEK 24",12,168,19826,"CIBICVAL","CIBIC Score",1,4,"Y","",">140",168,0,141,null,"DAYS",6003],
[304,"CDISCPILOT01","708","708","01-708-1019",19712,19724,"Xanomeline Low Dose",54,68,"65-80",2,"WHITE",1,"M","Y","Y","N","Week 8",8,"WEEK 2",4,35,19746,"CIBICVAL","CIBIC Score",1,5,"Y","","2-84",56,21,2,84,"DAYS",6001],
[305,"CDISCPILOT01","708","708","01-708-1019",19712,19724,"Xanomeline Low Dose",54,68,"65-80",2,"WHITE",1,"M","Y","Y","N","Week 16",16,"WEEK 2",4,35,19746,"CIBICVAL","CIBIC Score",1,5,"Y","LOCF","85-140",112,77,85,140,"DAYS",6001],
[306,"CDISCPILOT01","708","708","01-708-1019",19712,19724,"Xanomeline Low Dose",54,68,"65-80",2,"WHITE",1,"M","Y","Y","N","Week 24",24,"WEEK 2",4,35,19746,"CIBICVAL","CIBIC Score",1,5,"Y","LOCF",">140",168,133,141,null,"DAYS",6001],
[307,"CDISCPILOT01","708","708","01-708-1032",19398,19418,"Xanomeline Low Dose",54,62,"<65",1,"WHITE",1,"M","Y","Y","N","Week 8",8,"WEEK 4",5,29,19426,"CIBICVAL","CIBIC Score",1,4,"Y","","2-84",56,27,2,84,"DAYS",6001],
[308,"CDISCPILOT01","708","708","01-708-1032",19398,19418,"Xanomeline Low Dose",54,62,"<65",1,"WHITE",1,"M","Y","Y","N","Week 16",16,"WEEK 4",5,29,19426,"CIBICVAL","CIBIC Score",1,4,"Y","LOCF","85-140",112,83,85,140,"DAYS",6001],
[309,"CDISCPILOT01","708","708","01-708-1032",19398,19418,"Xanomeline Low Dose",54,62,"<65",1,"WHITE",1,"M","Y","Y","N","Week 24",24,"WEEK 4",5,29,19426,"CIBICVAL","CIBIC Score",1,4,"Y","LOCF",">140",168,139,141,null,"DAYS",6001],
[310,"CDISCPILOT01","708","708","01-708-1084",19487,19673,"Xanomeline Low Dose",54,73,"65-80",2,"WHITE",1,"F","Y","Y","Y","Week 8",8,"WEEK 8",8,60,19546,"CIBICVAL","CIBIC Score",1,3,"Y","","2-84",56,4,2,84,"DAYS",6001],
[311,"CDISCPILOT01","708","708","01-708-1084",19487,19673,"Xanomeline Low Dose",54,73,"65-80",2,"WHITE",1,"F","Y","Y","Y","Week 16",16,"WEEK 16",10,116,19602,"CIBICVAL","CIBIC Score",1,3,"Y","","85-140",112,4,85,140,"DAYS",6002],
[312,"CDISCPILOT01","708","708","01-708-1084",19487,19673,"Xanomeline Low Dose",54,73,"65-80",2,"WHITE",1,"F","Y","Y","Y","Week 24",24,"WEEK 24",12,173,19659,"CIBICVAL","CIBIC Score",1,4,"Y","",">140",168,5,141,null,"DAYS",6003],
[313,"CDISCPILOT01","708","708","01-708-1087",19288,19476,"Placebo",0,74,"65-80",2,"WHITE",1,"F","Y","Y","Y","Week 8",8,"WEEK 8",8,62,19349,"CIBICVAL","CIBIC Score",1,3,"Y","","2-84",56,6,2,84,"DAYS",6001],
[314,"CDISCPILOT01","708","708","01-708-1087",19288,19476,"Placebo",0,74,"65-80",2,"WHITE",1,"F","Y","Y","Y","Week 16",16,"WEEK 16",10,118,19405,"CIBICVAL","CIBIC Score",1,5,"Y","","85-140",112,6,85,140,"DAYS",6002],
[315,"CDISCPILOT01","708","708","01-708-1087",19288,19476,"Placebo",0,74,"65-80",2,"WHITE",1,"F","Y","Y","Y","Week 24",24,"WEEK 24",12,171,19458,"CIBICVAL","CIBIC Score",1,4,"Y","",">140",168,3,141,null,"DAYS",6003],
[316,"CDISCPILOT01","708","708","01-708-1158",19762,19803,"Placebo",0,81,">80",3,"WHITE",1,"F","Y","Y","N","Week 8",8,"WEEK 6",7,43,19804,"CIBICVAL","CIBIC Score",1,5,"Y","","2-84",56,13,2,84,"DAYS",6001],
[317,"CDISCPILOT01","708","708","01-708-1158",19762,19803,"Placebo",0,81,">80",3,"WHITE",1,"F","Y","Y","N","Week 16",16,"WEEK 6",7,43,19804,"CIBICVAL","CIBIC Score",1,5,"Y","LOCF","85-140",112,69,85,140,"DAYS",6001],
[318,"CDISCPILOT01","708","708","01-708-1158",19762,19803,"Placebo",0,81,">80",3,"WHITE",1,"F","Y","Y","N","Week 24",24,"WEEK 6",7,43,19804,"CIBICVAL","CIBIC Score",1,5,"Y","LOCF",">140",168,125,141,null,"DAYS",6001],
[319,"CDISCPILOT01","708","708","01-708-1171",19333,19513,"Placebo",0,77,"65-80",2,"WHITE",1,"F","Y","Y","Y","Week 8",8,"WEEK 8",8,54,19386,"CIBICVAL","CIBIC Score",1,4,"Y","","2-84",56,2,2,84,"DAYS",6001],
[320,"CDISCPILOT01","708","708","01-708-1171",19333,19513,"Placebo",0,77,"65-80",2,"WHITE",1,"F","Y","Y","Y","Week 16",16,"WEEK 16",10,110,19442,"CIBICVAL","CIBIC Score",1,5,"Y","","85-140",112,2,85,140,"DAYS",6002],
[321,"CDISCPILOT01","708","708","01-708-1171",19333,19513,"Placebo",0,77,"65-80",2,"WHITE",1,"F","Y","Y","Y","Week 24",24,"WEEK 24",12,166,19498,"CIBICVAL","CIBIC Score",1,5,"Y","",">140",168,2,141,null,"DAYS",6003],
[322,"CDISCPILOT01","708","708","01-708-1178",19721,19819,"Xanomeline High Dose",81,77,"65-80",2,"BLACK OR AFRICAN AMERICAN",2,"F","Y","Y","N","Week 8",8,"WEEK 8",8,71,19791,"CIBICVAL","CIBIC Score",1,5,"Y","","2-84",56,15,2,84,"DAYS",6001],
[323,"CDISCPILOT01","708","708","01-708-1178",19721,19819,"Xanomeline High Dose",81,77,"65-80",2,"BLACK OR AFRICAN AMERICAN",2,"F","Y","Y","N","Week 16",16,"WEEK 12",9,99,19819,"CIBICVAL","CIBIC Score",1,3,"Y","","85-140",112,13,85,140,"DAYS",6002],
[324,"CDISCPILOT01","708","708","01-708-1178",19721,19819,"Xanomeline High Dose",81,77,"65-80",2,"BLACK OR AFRICAN AMERICAN",2,"F","Y","Y","N","Week 24",24,"WEEK 12",9,99,19819,"CIBICVAL","CIBIC Score",1,3,"Y","LOCF",">140",168,69,141,null,"DAYS",6002],
[325,"CDISCPILOT01","708","708","01-708-1213",19398,19411,"Xanomeline High Dose",81,76,"65-80",2,"WHITE",1,"F","Y","N","N","Week 8",8,"WEEK 4",5,18,19415,"CIBICVAL","CIBIC Score",1,4,"Y","","2-84",56,38,2,84,"DAYS",6001],
[326,"CDISCPILOT01","708","708","01-708-1213",19398,19411,"Xanomeline High Dose",81,76,"65-80",2,"WHITE",1,"F","Y","N","N","Week 16",16,"WEEK 4",5,18,19415,"CIBICVAL","CIBIC Score",1,4,"Y","LOCF","85-140",112,94,85,140,"DAYS",6001],
[327,"CDISCPILOT01","708","708","01-708-1213",19398,19411,"Xanomeline High Dose",81,76,"65-80",2,"WHITE",1,"F","Y","N","N","Week 24",24,"WEEK 4",5,18,19415,"CIBICVAL","CIBIC Score",1,4,"Y","LOCF",">140",168,150,141,null,"DAYS",6001],
[328,"CDISCPILOT01","708","708","01-708-1216",19290,19326,"Xanomeline High Dose",81,78,"65-80",2,"WHITE",1,"M","Y","Y","N","Week 8",8,"WEEK 6",7,44,19333,"CIBICVAL","CIBIC Score",1,3,"Y","","2-84",56,12,2,84,"DAYS",6001],
[329,"CDISCPILOT01","708","708","01-708-1216",19290,19326,"Xanomeline High Dose",81,78,"65-80",2,"WHITE",1,"M","Y","Y","N","Week 16",16,"WEEK 6",7,44,19333,"CIBICVAL","CIBIC Score",1,3,"Y","LOCF","85-140",112,68,85,140,"DAYS",6001],
[330,"CDISCPILOT01","708","708","01-708-1216",19290,19326,"Xanomeline High Dose",81,78,"65-80",2,"WHITE",1,"M","Y","Y","N","Week 24",24,"WEEK 6",7,44,19333,"CIBICVAL","CIBIC Score",1,3,"Y","LOCF",">140",168,124,141,null,"DAYS",6001],
[331,"CDISCPILOT01","708","708","01-708-1253",19485,19667,"Placebo",0,61,"<65",1,"WHITE",1,"M","Y","Y","Y","Week 8",8,"WEEK 8",8,64,19548,"CIBICVAL","CIBIC Score",1,3,"Y","","2-84",56,8,2,84,"DAYS",6001],
[332,"CDISCPILOT01","708","708","01-708-1253",19485,19667,"Placebo",0,61,"<65",1,"WHITE",1,"M","Y","Y","Y","Week 16",16,"WEEK 16",10,119,19603,"CIBICVAL","CIBIC Score",1,4,"Y","","85-140",112,7,85,140,"DAYS",6002],
[333,"CDISCPILOT01","708","708","01-708-1253",19485,19667,"Placebo",0,61,"<65",1,"WHITE",1,"M","Y","Y","Y","Week 24",24,"WEEK 24",12,174,19658,"CIBICVAL","CIBIC Score",1,4,"Y","",">140",168,6,141,null,"DAYS",6003],
[334,"CDISCPILOT01","708","708","01-708-1272",19395,19439,"Xanomeline Low Dose",54,82,">80",3,"WHITE",1,"M","Y","Y","N","Week 8",8,"WEEK 8",8,58,19452,"CIBICVAL","CIBIC Score",1,3,"Y","","2-84",56,2,2,84,"DAYS",6001],
[335,"CDISCPILOT01","708","708","01-708-1272",19395,19439,"Xanomeline Low Dose",54,82,">80",3,"WHITE",1,"M","Y","Y","N","Week 16",16,"WEEK 8",8,58,19452,"CIBICVAL","CIBIC Score",1,3,"Y","LOCF","85-140",112,54,85,140,"DAYS",6001],
[336,"CDISCPILOT01","708","708","01-708-1272",19395,19439,"Xanomeline Low Dose",54,82,">80",3,"WHITE",1,"M","Y","Y","N","Week 24",24,"WEEK 8",8,58,19452,"CIBICVAL","CIBIC Score",1,3,"Y","LOCF",">140",168,110,141,null,"DAYS",6001],
[337,"CDISCPILOT01","708","708","01-708-1286",19611,19790,"Placebo",0,80,"65-80",2,"BLACK OR AFRICAN AMERICAN",2,"F","Y","Y","Y","Week 8",8,"WEEK 8",8,55,19665,"CIBICVAL","CIBIC Score",1,3,"Y","","2-84",56,1,2,84,"DAYS",6001],
[338,"CDISCPILOT01","708","708","01-708-1286",19611,19790,"Placebo",0,80,"65-80",2,"BLACK OR AFRICAN AMERICAN",2,"F","Y","Y","Y","Week 16",16,"WEEK 16",10,111,19721,"CIBICVAL","CIBIC Score",1,4,"Y","","85-140",112,1,85,140,"DAYS",6002],
[339,"CDISCPILOT01","708","708","01-708-1286",19611,19790,"Placebo",0,80,"65-80",2,"BLACK OR AFRICAN AMERICAN",2,"F","Y","Y","Y","Week 24",24,"WEEK 24",12,167,19777,"CIBICVAL","CIBIC Score",1,3,"Y","",">140",168,1,141,null,"DAYS",6003],
[340,"CDISCPILOT01","708","708","01-708-1296",19523,19704,"Placebo",0,57,"<65",1,"BLACK OR AFRICAN AMERICAN",2,"M","Y","Y","Y","Week 8",8,"WEEK 8",8,55,19577,"CIBICVAL","CIBIC Score",1,5,"Y","","2-84",56,1,2,84,"DAYS",6001],
[341,"CDISCPILOT01","708","708","01-708-1296",19523,19704,"Placebo",0,57,"<65",1,"BLACK OR AFRICAN AMERICAN",2,"M","Y","Y","Y","Week 16",16,"WEEK 16",10,111,19633,"CIBICVAL","CIBIC Score",1,5,"Y","","85-140",112,1,85,140,"DAYS",6002],
[342,"CDISCPILOT01","708","708","01-708-1296",19523,19704,"Placebo",0,57,"<65",1,"BLACK OR AFRICAN AMERICAN",2,"M","Y","Y","Y","Week 24",24,"WEEK 24",12,167,19689,"CIBICVAL","CIBIC Score",1,3,"Y","",">140",168,1,141,null,"DAYS",6003],
[343,"CDISCPILOT01","708","708","01-708-1297",19383,19481,"Xanomeline Low Dose",54,61,"<65",1,"WHITE",1,"M","Y","Y","N","Week 8",8,"WEEK 8",8,54,19436,"CIBICVAL","CIBIC Score",1,5,"Y","","2-84",56,2,2,84,"DAYS",6001],
[344,"CDISCPILOT01","708","708","01-708-1297",19383,19481,"Xanomeline Low Dose",54,61,"<65",1,"WHITE",1,"M","Y","Y","N","Week 16",16,"WEEK 16",10,104,19486,"CIBICVAL","CIBIC Score",1,5,"Y","","85-140",112,8,85,140,"DAYS",6002],
[345,"CDISCPILOT01","708","708","01-708-1297",19383,19481,"Xanomeline Low Dose",54,61,"<65",1,"WHITE",1,"M","Y","Y","N","Week 24",24,"WEEK 16",10,104,19486,"CIBICVAL","CIBIC Score",1,5,"Y","LOCF",">140",168,64,141,null,"DAYS",6002],
[346,"CDISCPILOT01","708","708","01-708-1316",19593,19783,"Placebo",0,74,"65-80",2,"WHITE",1,"F","Y","Y","Y","Week 8",8,"WEEK 8",8,64,19656,"CIBICVAL","CIBIC Score",1,3,"Y","","2-84",56,8,2,84,"DAYS",6001],
[347,"CDISCPILOT01","708","708","01-708-1316",19593,19783,"Placebo",0,74,"65-80",2,"WHITE",1,"F","Y","Y","Y","Week 16",16,"WEEK 16",10,121,19713,"CIBICVAL","CIBIC Score",1,4,"Y","","85-140",112,9,85,140,"DAYS",6002],
[348,"CDISCPILOT01","708","708","01-708-1316",19593,19783,"Placebo",0,74,"65-80",2,"WHITE",1,"F","Y","Y","Y","Week 24",24,"WEEK 24",12,177,19769,"CIBICVAL","CIBIC Score",1,4,"Y","",">140",168,9,141,null,"DAYS",6003],
[349,"CDISCPILOT01","708","708","01-708-1336",19334,19514,"Xanomeline High Dose",81,73,"65-80",2,"WHITE",1,"M","Y","Y","Y","Week 8",8,"WEEK 8",8,54,19387,"CIBICVAL","CIBIC Score",1,5,"Y","","2-84",56,2,2,84,"DAYS",6001],
[350,"CDISCPILOT01","708","708","01-708-1336",19334,19514,"Xanomeline High Dose",81,73,"65-80",2,"WHITE",1,"M","Y","Y","Y","Week 16",16,"WEEK 16",10,111,19444,"CIBICVAL","CIBIC Score",1,5,"Y","","85-140",112,1,85,140,"DAYS",6002],
[351,"CDISCPILOT01","708","708","01-708-1336",19334,19514,"Xanomeline High Dose",81,73,"65-80",2,"WHITE",1,"M","Y","Y","Y","Week 24",24,"WEEK 24",12,167,19500,"CIBICVAL","CIBIC Score",1,6,"Y","",">140",168,1,141,null,"DAYS",6003],
[352,"CDISCPILOT01","708","708","01-708-1342",19356,19537,"Placebo",0,59,"<65",1,"WHITE",1,"F","Y","Y","Y","Week 8",8,"WEEK 8",8,57,19412,"CIBICVAL","CIBIC Score",1,3,"Y","","2-84",56,1,2,84,"DAYS",6001],
[353,"CDISCPILOT01","708","708","01-708-1342",19356,19537,"Placebo",0,59,"<65",1,"WHITE",1,"F","Y","Y","Y","Week 16",16,"WEEK 16",10,113,19468,"CIBICVAL","CIBIC Score",1,4,"Y","","85-140",112,1,85,140,"DAYS",6002],
[354,"CDISCPILOT01","708","708","01-708-1342",19356,19537,"Placebo",0,59,"<65",1,"WHITE",1,"F","Y","Y","Y","Week 24",24,"WEEK 24",12,169,19524,"CIBICVAL","CIBIC Score",1,5,"Y","",">140",168,1,141,null,"DAYS",6003],
[355,"CDISCPILOT01","708","708","01-708-1347",19468,19527,"Xanomeline High Dose",81,61,"<65",1,"WHITE",1,"F","Y","Y","N","Week 8",8,"WEEK 8",8,55,19522,"CIBICVAL","CIBIC Score",1,3,"Y","","2-84",56,1,2,84,"DAYS",6001],
[356,"CDISCPILOT01","708","708","01-708-1347",19468,19527,"Xanomeline High Dose",81,61,"<65",1,"WHITE",1,"F","Y","Y","N","Week 8",8,"WEEK 12",9,60,19527,"CIBICVAL","CIBIC Score",1,4,"","","2-84",56,4,2,84,"DAYS",6002],
[357,"CDISCPILOT01","708","708","01-708-1347",19468,19527,"Xanomeline High Dose",81,61,"<65",1,"WHITE",1,"F","Y","Y","N","Week 16",16,"WEEK 12",9,60,19527,"CIBICVAL","CIBIC Score",1,3,"Y","LOCF","85-140",112,52,85,140,"DAYS",6002],
[358,"CDISCPILOT01","708","708","01-708-1347",19468,19527,"Xanomeline High Dose",81,61,"<65",1,"WHITE",1,"F","Y","Y","N","Week 24",24,"WEEK 12",9,60,19527,"CIBICVAL","CIBIC Score",1,3,"Y","LOCF",">140",168,108,141,null,"DAYS",6002],
[359,"CDISCPILOT01","708","708","01-708-1348",19575,19767,"Xanomeline Low Dose",54,79,"65-80",2,"WHITE",1,"F","Y","Y","Y","Week 8",8,"WEEK 8",8,63,19637,"CIBICVAL","CIBIC Score",1,3,"Y","","2-84",56,7,2,84,"DAYS",6001],
[360,"CDISCPILOT01","708","708","01-708-1348",19575,19767,"Xanomeline Low Dose",54,79,"65-80",2,"WHITE",1,"F","Y","Y","Y","Week 16",16,"WEEK 16",10,119,19693,"CIBICVAL","CIBIC Score",1,5,"Y","","85-140",112,7,85,140,"DAYS",6002],
[361,"CDISCPILOT01","708","708","01-708-1348",19575,19767,"Xanomeline Low Dose",54,79,"65-80",2,"WHITE",1,"F","Y","Y","Y","Week 24",24,"WEEK 24",12,183,19757,"CIBICVAL","CIBIC Score",1,3,"Y","",">140",168,15,141,null,"DAYS",6003],
[362,"CDISCPILOT01","708","708","01-708-1353",19543,19598,"Xanomeline Low Dose",54,87,">80",3,"BLACK OR AFRICAN AMERICAN",2,"F","Y","Y","N","Week 8",8,"WEEK 8",8,69,19611,"CIBICVAL","CIBIC Score",1,5,"Y","","2-84",56,13,2,84,"DAYS",6001],
[363,"CDISCPILOT01","708","708","01-708-1353",19543,19598,"Xanomeline Low Dose",54,87,">80",3,"BLACK OR AFRICAN AMERICAN",2,"F","Y","Y","N","Week 16",16,"WEEK 8",8,69,19611,"CIBICVAL","CIBIC Score",1,5,"Y","LOCF","85-140",112,43,85,140,"DAYS",6001],
[364,"CDISCPILOT01","708","708","01-708-1353",19543,19598,"Xanomeline Low Dose",54,87,">80",3,"BLACK OR AFRICAN AMERICAN",2,"F","Y","Y","N","Week 24",24,"WEEK 8",8,69,19611,"CIBICVAL","CIBIC Score",1,5,"Y","LOCF",">140",168,99,141,null,"DAYS",6001],
[365,"CDISCPILOT01","708","708","01-708-1378",19604,19751,"Placebo",0,67,"65-80",2,"BLACK OR AFRICAN AMERICAN",2,"M","Y","Y","N","Week 8",8,"WEEK 8",8,64,19667,"CIBICVAL","CIBIC Score",1,3,"Y","","2-84",56,8,2,84,"DAYS",6001],
[366,"CDISCPILOT01","708","708","01-708-1378",19604,19751,"Placebo",0,67,"65-80",2,"BLACK OR AFRICAN AMERICAN",2,"M","Y","Y","N","Week 16",16,"WEEK 16",10,132,19735,"CIBICVAL","CIBIC Score",1,3,"Y","","85-140",112,20,85,140,"DAYS",6002],
[367,"CDISCPILOT01","708","708","01-708-1378",19604,19751,"Placebo",0,67,"65-80",2,"BLACK OR AFRICAN AMERICAN",2,"M","Y","Y","N","Week 24",24,"WEEK 20",11,148,19751,"CIBICVAL","CIBIC Score",1,3,"Y","",">140",168,20,141,null,"DAYS",6003],
[368,"CDISCPILOT01","708","708","01-708-1406",19718,19906,"Xanomeline High Dose",81,71,"65-80",2,"WHITE",1,"F","Y","Y","Y","Week 8",8,"WEEK 8",8,61,19778,"CIBICVAL","CIBIC Score",1,3,"Y","","2-84",56,5,2,84,"DAYS",6001],
[369,"CDISCPILOT01","708","708","01-708-1406",19718,19906,"Xanomeline High Dose",81,71,"65-80",2,"WHITE",1,"F","Y","Y","Y","Week 16",16,"WEEK 16",10,112,19829,"CIBICVAL","CIBIC Score",1,5,"Y","","85-140",112,0,85,140,"DAYS",6002],
[370,"CDISCPILOT01","708","708","01-708-1406",19718,19906,"Xanomeline High Dose",81,71,"65-80",2,"WHITE",1,"F","Y","Y","Y","Week 24",24,"WEEK 24",12,173,19890,"CIBICVAL","CIBIC Score",1,5,"Y","",">140",168,5,141,null,"DAYS",6003],
[371,"CDISCPILOT01","708","708","01-708-1428",19671,19706,"Xanomeline Low Dose",54,84,">80",3,"WHITE",1,"F","Y","Y","N","Week 8",8,"WEEK 8",8,84,19754,"CIBICVAL","CIBIC Score",1,5,"Y","","2-84",56,28,2,84,"DAYS",6001],
[372,"CDISCPILOT01","708","708","01-708-1428",19671,19706,"Xanomeline Low Dose",54,84,">80",3,"WHITE",1,"F","Y","Y","N","Week 16",16,"WEEK 8",8,84,19754,"CIBICVAL","CIBIC Score",1,5,"Y","LOCF","85-140",112,28,85,140,"DAYS",6001],
[373,"CDISCPILOT01","708","708","01-708-1428",19671,19706,"Xanomeline Low Dose",54,84,">80",3,"WHITE",1,"F","Y","Y","N","Week 24",24,"WEEK 8",8,84,19754,"CIBICVAL","CIBIC Score",1,5,"Y","LOCF",">140",168,84,141,null,"DAYS",6001],
[374,"CDISCPILOT01","709","709","01-709-1001",19639,19821,"Placebo",0,76,"65-80",2,"WHITE",1,"F","Y","Y","Y","Week 8",8,"WEEK 8",8,57,19695,"CIBICVAL","CIBIC Score",1,3,"Y","","2-84",56,1,2,84,"DAYS",6001],
[375,"CDISCPILOT01","709","709","01-709-1001",19639,19821,"Placebo",0,76,"65-80",2,"WHITE",1,"F","Y","Y","Y","Week 16",16,"WEEK 16",10,113,19751,"CIBICVAL","CIBIC Score",1,5,"Y","","85-140",112,1,85,140,"DAYS",6002],
[376,"CDISCPILOT01","709","709","01-709-1001",19639,19821,"Placebo",0,76,"65-80",2,"WHITE",1,"F","Y","Y","Y","Week 24",24,"WEEK 24",12,161,19799,"CIBICVAL","CIBIC Score",1,5,"Y","",">140",168,7,141,null,"DAYS",6003],
[377,"CDISCPILOT01","709","709","01-709-1020",19328,19510,"Xanomeline Low Dose",54,72,"65-80",2,"WHITE",1,"F","Y","Y","Y","Week 8",8,"WEEK 8",8,57,19384,"CIBICVAL","CIBIC Score",1,2,"Y","","2-84",56,1,2,84,"DAYS",6001],
[378,"CDISCPILOT01","709","709","01-709-1020",19328,19510,"Xanomeline Low Dose",54,72,"65-80",2,"WHITE",1,"F","Y","Y","Y","Week 16",16,"WEEK 16",10,113,19440,"CIBICVAL","CIBIC Score",1,3,"Y","","85-140",112,1,85,140,"DAYS",6002],
[379,"CDISCPILOT01","709","709","01-709-1020",19328,19510,"Xanomeline Low Dose",54,72,"65-80",2,"WHITE",1,"F","Y","Y","Y","Week 24",24,"WEEK 24",12,169,19496,"CIBICVAL","CIBIC Score",1,4,"Y","",">140",168,1,141,null,"DAYS",6003],
[380,"CDISCPILOT01","709","709","01-709-1029",19352,19535,"Xanomeline High Dose",81,82,">80",3,"WHITE",1,"M","Y","Y","Y","Week 8",8,"WEEK 8",8,57,19408,"CIBICVAL","CIBIC Score",1,5,"Y","","2-84",56,1,2,84,"DAYS",6001],
[381,"CDISCPILOT01","709","709","01-709-1029",19352,19535,"Xanomeline High Dose",81,82,">80",3,"WHITE",1,"M","Y","Y","Y","Week 16",16,"WEEK 16",10,113,19464,"CIBICVAL","CIBIC Score",1,4,"Y","","85-140",112,1,85,140,"DAYS",6002],
[382,"CDISCPILOT01","709","709","01-709-1029",19352,19535,"Xanomeline High Dose",81,82,">80",3,"WHITE",1,"M","Y","Y","Y","Week 24",24,"WEEK 24",12,170,19521,"CIBICVAL","CIBIC Score",1,5,"Y","",">140",168,2,141,null,"DAYS",6003],
[383,"CDISCPILOT01","709","709","01-709-1081",19741,19840,"Xanomeline Low Dose",54,86,">80",3,"WHITE",1,"F","Y","Y","N","Week 8",8,"WEEK 8",8,57,19797,"CIBICVAL","CIBIC Score",1,3,"Y","","2-84",56,1,2,84,"DAYS",6001],
[384,"CDISCPILOT01","709","709","01-709-1081",19741,19840,"Xanomeline Low Dose",54,86,">80",3,"WHITE",1,"F","Y","Y","N","Week 16",16,"WEEK 16",10,113,19853,"CIBICVAL","CIBIC Score",1,3,"Y","","85-140",112,1,85,140,"DAYS",6002],
[385,"CDISCPILOT01","709","709","01-709-1081",19741,19840,"Xanomeline Low Dose",54,86,">80",3,"WHITE",1,"F","Y","Y","N","Week 24",24,"WEEK 16",10,113,19853,"CIBICVAL","CIBIC Score",1,3,"Y","LOCF",">140",168,55,141,null,"DAYS",6002],
[386,"CDISCPILOT01","709","709","01-709-1088",19825,20005,"Placebo",0,69,"65-80",2,"WHITE",1,"M","Y","Y","Y","Week 8",8,"WEEK 8",8,51,19875,"CIBICVAL","CIBIC Score",1,3,"Y","","2-84",56,5,2,84,"DAYS",6001],
[387,"CDISCPILOT01","709","709","01-709-1088",19825,20005,"Placebo",0,69,"65-80",2,"WHITE",1,"M","Y","Y","Y","Week 16",16,"WEEK 16",10,113,19937,"CIBICVAL","CIBIC Score",1,3,"Y","","85-140",112,1,85,140,"DAYS",6002],
[388,"CDISCPILOT01","709","709","01-709-1088",19825,20005,"Placebo",0,69,"65-80",2,"WHITE",1,"M","Y","Y","Y","Week 24",24,"WEEK 24",12,169,19993,"CIBICVAL","CIBIC Score",1,3,"Y","",">140",168,1,141,null,"DAYS",6003],
[389,"CDISCPILOT01","709","709","01-709-1099",19656,19838,"Xanomeline High Dose",81,79,"65-80",2,"WHITE",1,"F","Y","Y","Y","Week 8",8,"WEEK 8",8,63,19718,"CIBICVAL","CIBIC Score",1,3,"Y","","2-84",56,7,2,84,"DAYS",6001],
[390,"CDISCPILOT01","709","709","01-709-1099",19656,19838,"Xanomeline High Dose",81,79,"65-80",2,"WHITE",1,"F","Y","Y","Y","Week 16",16,"WEEK 16",10,113,19768,"CIBICVAL","CIBIC Score",1,3,"Y","","85-140",112,1,85,140,"DAYS",6002],
[391,"CDISCPILOT01","709","709","01-709-1099",19656,19838,"Xanomeline High Dose",81,79,"65-80",2,"WHITE",1,"F","Y","Y","Y","Week 24",24,"WEEK 24",12,169,19824,"CIBICVAL","CIBIC Score",1,5,"Y","",">140",168,1,141,null,"DAYS",6003],
[392,"CDISCPILOT01","709","709","01-709-1102",19373,19444,"Xanomeline Low Dose",54,71,"65-80",2,"WHITE",1,"F","Y","Y","N","Week 8",8,"WEEK 8",8,57,19429,"CIBICVAL","CIBIC Score",1,5,"Y","","2-84",56,1,2,84,"DAYS",6001],
[393,"CDISCPILOT01","709","709","01-709-1102",19373,19444,"Xanomeline Low Dose",54,71,"65-80",2,"WHITE",1,"F","Y","Y","N","Week 8",8,"WEEK 12",9,76,19448,"CIBICVAL","CIBIC Score",1,5,"","","2-84",56,20,2,84,"DAYS",6002],
[394,"CDISCPILOT01","709","709","01-709-1102",19373,19444,"Xanomeline Low Dose",54,71,"65-80",2,"WHITE",1,"F","Y","Y","N","Week 16",16,"WEEK 12",9,76,19448,"CIBICVAL","CIBIC Score",1,5,"Y","LOCF","85-140",112,36,85,140,"DAYS",6002],
[395,"CDISCPILOT01","709","709","01-709-1102",19373,19444,"Xanomeline Low Dose",54,71,"65-80",2,"WHITE",1,"F","Y","Y","N","Week 24",24,"WEEK 12",9,76,19448,"CIBICVAL","CIBIC Score",1,5,"Y","LOCF",">140",168,92,141,null,"DAYS",6002],
[396,"CDISCPILOT01","709","709","01-709-1168",19572,19627,"Xanomeline High Dose",81,72,"65-80",2,"WHITE",1,"F","Y","Y","N","Week 8",8,"WEEK 8",8,57,19628,"CIBICVAL","CIBIC Score",1,5,"Y","","2-84",56,1,2,84,"DAYS",6001],
[397,"CDISCPILOT01","709","709","01-709-1168",19572,19627,"Xanomeline High Dose",81,72,"65-80",2,"WHITE",1,"F","Y","Y","N","Week 16",16,"WEEK 8",8,57,19628,"CIBICVAL","CIBIC Score",1,5,"Y","LOCF","85-140",112,55,85,140,"DAYS",6001],
[398,"CDISCPILOT01","709","709","01-709-1168",19572,19627,"Xanomeline High Dose",81,72,"65-80",2,"WHITE",1,"F","Y","Y","N","Week 24",24,"WEEK 8",8,57,19628,"CIBICVAL","CIBIC Score",1,5,"Y","LOCF",">140",168,111,141,null,"DAYS",6001],
[399,"CDISCPILOT01","709","709","01-709-1217",19421,19520,"Xanomeline Low Dose",54,77,"65-80",2,"WHITE",1,"M","Y","Y","N","Week 8",8,"WEEK 8",8,57,19477,"CIBICVAL","CIBIC Score",1,6,"Y","","2-84",56,1,2,84,"DAYS",6001],
[400,"CDISCPILOT01","709","709","01-709-1217",19421,19520,"Xanomeline Low Dose",54,77,"65-80",2,"WHITE",1,"M","Y","Y","N","Week 16",16,"WEEK 16",10,114,19534,"CIBICVAL","CIBIC Score",1,5,"Y","","85-140",112,2,85,140,"DAYS",6002],
[401,"CDISCPILOT01","709","709","01-709-1217",19421,19520,"Xanomeline Low Dose",54,77,"65-80",2,"WHITE",1,"M","Y","Y","N","Week 24",24,"WEEK 16",10,114,19534,"CIBICVAL","CIBIC Score",1,5,"Y","LOCF",">140",168,54,141,null,"DAYS",6002],
[402,"CDISCPILOT01","709","709","01-709-1238",19493,19576,"Xanomeline High Dose",81,69,"65-80",2,"WHITE",1,"M","Y","Y","N","Week 8",8,"WEEK 8",8,49,19541,"CIBICVAL","CIBIC Score",1,4,"Y","","2-84",56,7,2,84,"DAYS",6001],
[403,"CDISCPILOT01","709","709","01-709-1238",19493,19576,"Xanomeline High Dose",81,69,"65-80",2,"WHITE",1,"M","Y","Y","N","Week 16",16,"WEEK 12",9,85,19577,"CIBICVAL","CIBIC Score",1,4,"Y","","85-140",112,27,85,140,"DAYS",6002],
[404,"CDISCPILOT01","709","709","01-709-1238",19493,19576,"Xanomeline High Dose",81,69,"65-80",2,"WHITE",1,"M","Y","Y","N","Week 24",24,"WEEK 12",9,85,19577,"CIBICVAL","CIBIC Score",1,4,"Y","LOCF",">140",168,83,141,null,"DAYS",6002],
[405,"CDISCPILOT01","709","709","01-709-1259",19384,19522,"Placebo",0,82,">80",3,"WHITE",1,"M","Y","Y","N","Week 8",8,"WEEK 8",8,57,19440,"CIBICVAL","CIBIC Score",1,5,"Y","","2-84",56,1,2,84,"DAYS",6001],
[406,"CDISCPILOT01","709","709","01-709-1259",19384,19522,"Placebo",0,82,">80",3,"WHITE",1,"M","Y","Y","N","Week 16",16,"WEEK 16",10,106,19489,"CIBICVAL","CIBIC Score",1,5,"Y","","85-140",112,6,85,140,"DAYS",6002],
[407,"CDISCPILOT01","709","709","01-709-1259",19384,19522,"Placebo",0,82,">80",3,"WHITE",1,"M","Y","Y","N","Week 16",16,"WEEK 20",11,139,19522,"CIBICVAL","CIBIC Score",1,5,"","","85-140",112,27,85,140,"DAYS",6003],
[408,"CDISCPILOT01","709","709","01-709-1259",19384,19522,"Placebo",0,82,">80",3,"WHITE",1,"M","Y","Y","N","Week 24",24,"WEEK 20",11,139,19522,"CIBICVAL","CIBIC Score",1,5,"Y","LOCF",">140",168,29,141,null,"DAYS",6003],
[409,"CDISCPILOT01","709","709","01-709-1285",19441,19501,"Xanomeline Low Dose",54,87,">80",3,"WHITE",1,"M","Y","Y","N","Week 8",8,"WEEK 8",8,57,19497,"CIBICVAL","CIBIC Score",1,3,"Y","","2-84",56,1,2,84,"DAYS",6001],
[410,"CDISCPILOT01","709","709","01-709-1285",19441,19501,"Xanomeline Low Dose",54,87,">80",3,"WHITE",1,"M","Y","Y","N","Week 8",8,"WEEK 12",9,69,19509,"CIBICVAL","CIBIC Score",1,3,"","","2-84",56,13,2,84,"DAYS",6002],
[411,"CDISCPILOT01","709","709","01-709-1285",19441,19501,"Xanomeline Low Dose",54,87,">80",3,"WHITE",1,"M","Y","Y","N","Week 16",16,"WEEK 12",9,69,19509,"CIBICVAL","CIBIC Score",1,3,"Y","LOCF","85-140",112,43,85,140,"DAYS",6002],
[412,"CDISCPILOT01","709","709","01-709-1285",19441,19501,"Xanomeline Low Dose",54,87,">80",3,"WHITE",1,"M","Y","Y","N","Week 24",24,"WEEK 12",9,69,19509,"CIBICVAL","CIBIC Score",1,3,"Y","LOCF",">140",168,99,141,null,"DAYS",6002],
[413,"CDISCPILOT01","709","709","01-709-1301",19558,19740,"Placebo",0,62,"<65",1,"WHITE",1,"F","Y","Y","Y","Week 8",8,"WEEK 8",8,57,19614,"CIBICVAL","CIBIC Score",1,4,"Y","","2-84",56,1,2,84,"DAYS",6001],
[414,"CDISCPILOT01","709","709","01-709-1301",19558,19740,"Placebo",0,62,"<65",1,"WHITE",1,"F","Y","Y","Y","Week 16",16,"WEEK 16",10,113,19670,"CIBICVAL","CIBIC Score",1,4,"Y","","85-140",112,1,85,140,"DAYS",6002],
[415,"CDISCPILOT01","709","709","01-709-1301",19558,19740,"Placebo",0,62,"<65",1,"WHITE",1,"F","Y","Y","Y","Week 24",24,"WEEK 24",12,170,19727,"CIBICVAL","CIBIC Score",1,5,"Y","",">140",168,2,141,null,"DAYS",6003],
[416,"CDISCPILOT01","709","709","01-709-1306",19757,19890,"Placebo",0,60,"<65",1,"WHITE",1,"F","Y","Y","N","Week 8",8,"WEEK 8",8,59,19815,"CIBICVAL","CIBIC Score",1,4,"Y","","2-84",56,3,2,84,"DAYS",6001],
[417,"CDISCPILOT01","709","709","01-709-1306",19757,19890,"Placebo",0,60,"<65",1,"WHITE",1,"F","Y","Y","N","Week 16",16,"WEEK 16",10,115,19871,"CIBICVAL","CIBIC Score",1,5,"Y","","85-140",112,3,85,140,"DAYS",6002],
[418,"CDISCPILOT01","709","709","01-709-1306",19757,19890,"Placebo",0,60,"<65",1,"WHITE",1,"F","Y","Y","N","Week 24",24,"WEEK 20",11,143,19899,"CIBICVAL","CIBIC Score",1,5,"Y","",">140",168,25,141,null,"DAYS",6003],
[419,"CDISCPILOT01","709","709","01-709-1309",19528,19711,"Xanomeline High Dose",81,65,"65-80",2,"WHITE",1,"M","Y","Y","Y","Week 8",8,"WEEK 8",8,58,19585,"CIBICVAL","CIBIC Score",1,3,"Y","","2-84",56,2,2,84,"DAYS",6001],
[420,"CDISCPILOT01","709","709","01-709-1309",19528,19711,"Xanomeline High Dose",81,65,"65-80",2,"WHITE",1,"M","Y","Y","Y","Week 16",16,"WEEK 16",10,120,19647,"CIBICVAL","CIBIC Score",1,3,"Y","","85-140",112,8,85,140,"DAYS",6002],
[421,"CDISCPILOT01","709","709","01-709-1309",19528,19711,"Xanomeline High Dose",81,65,"65-80",2,"WHITE",1,"M","Y","Y","Y","Week 24",24,"WEEK 24",12,170,19697,"CIBICVAL","CIBIC Score",1,4,"Y","",">140",168,2,141,null,"DAYS",6003],
[422,"CDISCPILOT01","709","709","01-709-1312",19833,20015,"Placebo",0,68,"65-80",2,"WHITE",1,"F","Y","Y","Y","Week 8",8,"WEEK 8",8,55,19887,"CIBICVAL","CIBIC Score",1,4,"Y","","2-84",56,1,2,84,"DAYS",6001],
[423,"CDISCPILOT01","709","709","01-709-1312",19833,20015,"Placebo",0,68,"65-80",2,"WHITE",1,"F","Y","Y","Y","Week 16",16,"WEEK 16",10,113,19945,"CIBICVAL","CIBIC Score",1,4,"Y","","85-140",112,1,85,140,"DAYS",6002],
[424,"CDISCPILOT01","709","709","01-709-1312",19833,20015,"Placebo",0,68,"65-80",2,"WHITE",1,"F","Y","Y","Y","Week 24",24,"WEEK 24",12,169,20001,"CIBICVAL","CIBIC Score",1,5,"Y","",">140",168,1,141,null,"DAYS",6003],
[425,"CDISCPILOT01","709","709","01-709-1326",19453,19633,"Xanomeline Low Dose",54,75,"65-80",2,"WHITE",1,"F","Y","Y","Y","Week 8",8,"WEEK 8",8,58,19510,"CIBICVAL","CIBIC Score",1,4,"Y","","2-84",56,2,2,84,"DAYS",6001],
[426,"CDISCPILOT01","709","709","01-709-1326",19453,19633,"Xanomeline Low Dose",54,75,"65-80",2,"WHITE",1,"F","Y","Y","Y","Week 16",16,"WEEK 16",10,113,19565,"CIBICVAL","CIBIC Score",1,4,"Y","","85-140",112,1,85,140,"DAYS",6002],
[427,"CDISCPILOT01","709","709","01-709-1326",19453,19633,"Xanomeline Low Dose",54,75,"65-80",2,"WHITE",1,"F","Y","Y","Y","Week 24",24,"WEEK 24",12,169,19621,"CIBICVAL","CIBIC Score",1,3,"Y","",">140",168,1,141,null,"DAYS",6003],
[428,"CDISCPILOT01","709","709","01-709-1329",19585,19595,"Xanomeline High Dose",81,70,"65-80",2,"WHITE",1,"M","Y","Y","N","Week 8",8,"WEEK 2",4,15,19599,"CIBICVAL","CIBIC Score",1,5,"Y","","2-84",56,41,2,84,"DAYS",6001],
[429,"CDISCPILOT01","709","709","01-709-1329",19585,19595,"Xanomeline High Dose",81,70,"65-80",2,"WHITE",1,"M","Y","Y","N","Week 16",16,"WEEK 2",4,15,19599,"CIBICVAL","CIBIC Score",1,5,"Y","LOCF","85-140",112,97,85,140,"DAYS",6001],
[430,"CDISCPILOT01","709","709","01-709-1329",19585,19595,"Xanomeline High Dose",81,70,"65-80",2,"WHITE",1,"M","Y","Y","N","Week 24",24,"WEEK 2",4,15,19599,"CIBICVAL","CIBIC Score",1,5,"Y","LOCF",">140",168,153,141,null,"DAYS",6001],
[431,"CDISCPILOT01","709","709","01-709-1339",19350,19533,"Placebo",0,81,">80",3,"WHITE",1,"M","Y","Y","Y","Week 8",8,"WEEK 8",8,59,19408,"CIBICVAL","CIBIC Score",1,4,"Y","","2-84",56,3,2,84,"DAYS",6001],
[432,"CDISCPILOT01","709","709","01-709-1339",19350,19533,"Placebo",0,81,">80",3,"WHITE",1,"M","Y","Y","Y","Week 16",16,"WEEK 16",10,113,19462,"CIBICVAL","CIBIC Score",1,3,"Y","","85-140",112,1,85,140,"DAYS",6002],
[433,"CDISCPILOT01","709","709","01-709-1339",19350,19533,"Placebo",0,81,">80",3,"WHITE",1,"M","Y","Y","Y","Week 24",24,"WEEK 24",12,168,19517,"CIBICVAL","CIBIC Score",1,4,"Y","",">140",168,0,141,null,"DAYS",6003],
[434,"CDISCPILOT01","709","709","01-709-1424",19420,19424,"Xanomeline High Dose",81,77,"65-80",2,"WHITE",1,"M","Y","Y","N","Week 8",8,"WEEK 2",4,6,19425,"CIBICVAL","CIBIC Score",1,4,"Y","","2-84",56,50,2,84,"DAYS",6001],
[435,"CDISCPILOT01","709","709","01-709-1424",19420,19424,"Xanomeline High Dose",81,77,"65-80",2,"WHITE",1,"M","Y","Y","N","Week 16",16,"WEEK 2",4,6,19425,"CIBICVAL","CIBIC Score",1,4,"Y","LOCF","85-140",112,106,85,140,"DAYS",6001],
[436,"CDISCPILOT01","709","709","01-709-1424",19420,19424,"Xanomeline High Dose",81,77,"65-80",2,"WHITE",1,"M","Y","Y","N","Week 24",24,"WEEK 2",4,6,19425,"CIBICVAL","CIBIC Score",1,4,"Y","LOCF",">140",168,162,141,null,"DAYS",6001],
[437,"CDISCPILOT01","710","710","01-710-1002",19737,19741,"Xanomeline Low Dose",54,88,">80",3,"WHITE",1,"M","Y","Y","N","Week 8",8,"WEEK 2",4,5,19741,"CIBICVAL","CIBIC Score",1,5,"Y","","2-84",56,51,2,84,"DAYS",6001],
[438,"CDISCPILOT01","710","710","01-710-1002",19737,19741,"Xanomeline Low Dose",54,88,">80",3,"WHITE",1,"M","Y","Y","N","Week 16",16,"WEEK 2",4,5,19741,"CIBICVAL","CIBIC Score",1,5,"Y","LOCF","85-140",112,107,85,140,"DAYS",6001],
[439,"CDISCPILOT01","710","710","01-710-1002",19737,19741,"Xanomeline Low Dose",54,88,">80",3,"WHITE",1,"M","Y","Y","N","Week 24",24,"WEEK 2",4,5,19741,"CIBICVAL","CIBIC Score",1,5,"Y","LOCF",">140",168,163,141,null,"DAYS",6001],
[440,"CDISCPILOT01","710","710","01-710-1006",19399,19579,"Xanomeline High Dose",81,77,"65-80",2,"WHITE",1,"M","Y","Y","Y","Week 8",8,"WEEK 8",8,56,19454,"CIBICVAL","CIBIC Score",1,4,"Y","","2-84",56,0,2,84,"DAYS",6001],
[441,"CDISCPILOT01","710","710","01-710-1006",19399,19579,"Xanomeline High Dose",81,77,"65-80",2,"WHITE",1,"M","Y","Y","Y","Week 16",16,"WEEK 16",10,112,19510,"CIBICVAL","CIBIC Score",1,3,"Y","","85-140",112,0,85,140,"DAYS",6002],
[442,"CDISCPILOT01","710","710","01-710-1006",19399,19579,"Xanomeline High Dose",81,77,"65-80",2,"WHITE",1,"M","Y","Y","Y","Week 24",24,"WEEK 24",12,168,19566,"CIBICVAL","CIBIC Score",1,4,"Y","",">140",168,0,141,null,"DAYS",6003],
[443,"CDISCPILOT01","710","710","01-710-1027",19782,19964,"Placebo",0,83,">80",3,"WHITE",1,"M","Y","Y","Y","Week 8",8,"WEEK 8",8,56,19837,"CIBICVAL","CIBIC Score",1,4,"Y","","2-84",56,0,2,84,"DAYS",6001],
[444,"CDISCPILOT01","710","710","01-710-1027",19782,19964,"Placebo",0,83,">80",3,"WHITE",1,"M","Y","Y","Y","Week 16",16,"WEEK 16",10,113,19894,"CIBICVAL","CIBIC Score",1,5,"Y","","85-140",112,1,85,140,"DAYS",6002],
[445,"CDISCPILOT01","710","710","01-710-1027",19782,19964,"Placebo",0,83,">80",3,"WHITE",1,"M","Y","Y","Y","Week 24",24,"WEEK 24",12,173,19954,"CIBICVAL","CIBIC Score",1,5,"Y","",">140",168,5,141,null,"DAYS",6003],
[446,"CDISCPILOT01","710","710","01-710-1045",19512,19583,"Xanomeline Low Dose",54,83,">80",3,"WHITE",1,"F","Y","Y","N","Week 8",8,"WEEK 8",8,57,19568,"CIBICVAL","CIBIC Score",1,5,"Y","","2-84",56,1,2,84,"DAYS",6001],
[447,"CDISCPILOT01","710","710","01-710-1045",19512,19583,"Xanomeline Low Dose",54,83,">80",3,"WHITE",1,"F","Y","Y","N","Week 8",8,"WEEK 12",9,76,19587,"CIBICVAL","CIBIC Score",1,5,"","","2-84",56,20,2,84,"DAYS",6002],
[448,"CDISCPILOT01","710","710","01-710-1045",19512,19583,"Xanomeline Low Dose",54,83,">80",3,"WHITE",1,"F","Y","Y","N","Week 16",16,"WEEK 12",9,76,19587,"CIBICVAL","CIBIC Score",1,5,"Y","LOCF","85-140",112,36,85,140,"DAYS",6002],
[449,"CDISCPILOT01","710","710","01-710-1045",19512,19583,"Xanomeline Low Dose",54,83,">80",3,"WHITE",1,"F","Y","Y","N","Week 24",24,"WEEK 12",9,76,19587,"CIBICVAL","CIBIC Score",1,5,"Y","LOCF",">140",168,92,141,null,"DAYS",6002],
[450,"CDISCPILOT01","710","710","01-710-1053",19353,19399,"Xanomeline Low Dose",54,84,">80",3,"WHITE",1,"F","Y","Y","N","Week 8",8,"WEEK 8",8,52,19404,"CIBICVAL","CIBIC Score",1,4,"Y","","2-84",56,4,2,84,"DAYS",6001],
[451,"CDISCPILOT01","710","710","01-710-1053",19353,19399,"Xanomeline Low Dose",54,84,">80",3,"WHITE",1,"F","Y","Y","N","Week 16",16,"WEEK 8",8,52,19404,"CIBICVAL","CIBIC Score",1,4,"Y","LOCF","85-140",112,60,85,140,"DAYS",6001],
[452,"CDISCPILOT01","710","710","01-710-1053",19353,19399,"Xanomeline Low Dose",54,84,">80",3,"WHITE",1,"F","Y","Y","N","Week 24",24,"WEEK 8",8,52,19404,"CIBICVAL","CIBIC Score",1,4,"Y","LOCF",">140",168,116,141,null,"DAYS",6001],
[453,"CDISCPILOT01","710","710","01-710-1060",19359,19544,"Placebo",0,82,">80",3,"WHITE",1,"M","Y","Y","Y","Week 8",8,"WEEK 8",8,57,19415,"CIBICVAL","CIBIC Score",1,4,"Y","","2-84",56,1,2,84,"DAYS",6001],
[454,"CDISCPILOT01","710","710","01-710-1060",19359,19544,"Placebo",0,82,">80",3,"WHITE",1,"M","Y","Y","Y","Week 16",16,"WEEK 16",10,113,19471,"CIBICVAL","CIBIC Score",1,3,"Y","","85-140",112,1,85,140,"DAYS",6002],
[455,"CDISCPILOT01","710","710","01-710-1060",19359,19544,"Placebo",0,82,">80",3,"WHITE",1,"M","Y","Y","Y","Week 24",24,"WEEK 24",12,172,19530,"CIBICVAL","CIBIC Score",1,4,"Y","",">140",168,4,141,null,"DAYS",6003],
[456,"CDISCPILOT01","710","710","01-710-1070",19244,19380,"Xanomeline High Dose",81,85,">80",3,"WHITE",1,"F","Y","Y","N","Week 8",8,"WEEK 8",8,59,19302,"CIBICVAL","CIBIC Score",1,5,"Y","","2-84",56,3,2,84,"DAYS",6001],
[457,"CDISCPILOT01","710","710","01-710-1070",19244,19380,"Xanomeline High Dose",81,85,">80",3,"WHITE",1,"F","Y","Y","N","Week 16",16,"WEEK 16",10,112,19355,"CIBICVAL","CIBIC Score",1,4,"Y","","85-140",112,0,85,140,"DAYS",6002],
[458,"CDISCPILOT01","710","710","01-710-1070",19244,19380,"Xanomeline High Dose",81,85,">80",3,"WHITE",1,"F","Y","Y","N","Week 24",24,"WEEK 16",10,112,19355,"CIBICVAL","CIBIC Score",1,4,"Y","LOCF",">140",168,56,141,null,"DAYS",6002],
[459,"CDISCPILOT01","710","710","01-710-1077",19679,19861,"Placebo",0,76,"65-80",2,"WHITE",1,"F","Y","Y","Y","Week 8",8,"WEEK 8",8,57,19735,"CIBICVAL","CIBIC Score",1,4,"Y","","2-84",56,1,2,84,"DAYS",6001],
[460,"CDISCPILOT01","710","710","01-710-1077",19679,19861,"Placebo",0,76,"65-80",2,"WHITE",1,"F","Y","Y","Y","Week 16",16,"WEEK 16",10,113,19791,"CIBICVAL","CIBIC Score",1,4,"Y","","85-140",112,1,85,140,"DAYS",6002],
[461,"CDISCPILOT01","710","710","01-710-1077",19679,19861,"Placebo",0,76,"65-80",2,"WHITE",1,"F","Y","Y","Y","Week 24",24,"WEEK 24",12,168,19846,"CIBICVAL","CIBIC Score",1,5,"Y","",">140",168,0,141,null,"DAYS",6003],
[462,"CDISCPILOT01","710","710","01-710-1078",19618,19805,"Placebo",0,81,">80",3,"WHITE",1,"F","Y","Y","Y","Week 8",8,"WEEK 8",8,62,19679,"CIBICVAL","CIBIC Score",1,5,"Y","","2-84",56,6,2,84,"DAYS",6001],
[463,"CDISCPILOT01","710","710","01-710-1078",19618,19805,"Placebo",0,81,">80",3,"WHITE",1,"F","Y","Y","Y","Week 16",16,"WEEK 16",10,118,19735,"CIBICVAL","CIBIC Score",1,4,"Y","","85-140",112,6,85,140,"DAYS",6002],
[464,"CDISCPILOT01","710","710","01-710-1078",19618,19805,"Placebo",0,81,">80",3,"WHITE",1,"F","Y","Y","Y","Week 24",24,"WEEK 24",12,173,19790,"CIBICVAL","CIBIC Score",1,4,"Y","",">140",168,5,141,null,"DAYS",6003],
[465,"CDISCPILOT01","710","710","01-710-1142",19268,19286,"Xanomeline High Dose",81,76,"65-80",2,"WHITE",1,"F","Y","Y","N","Week 8",8,"WEEK 4",5,22,19289,"CIBICVAL","CIBIC Score",1,4,"Y","","2-84",56,34,2,84,"DAYS",6001],
[466,"CDISCPILOT01","710","710","01-710-1142",19268,19286,"Xanomeline High Dose",81,76,"65-80",2,"WHITE",1,"F","Y","Y","N","Week 16",16,"WEEK 4",5,22,19289,"CIBICVAL","CIBIC Score",1,4,"Y","LOCF","85-140",112,90,85,140,"DAYS",6001],
[467,"CDISCPILOT01","710","710","01-710-1142",19268,19286,"Xanomeline High Dose",81,76,"65-80",2,"WHITE",1,"F","Y","Y","N","Week 24",24,"WEEK 4",5,22,19289,"CIBICVAL","CIBIC Score",1,4,"Y","LOCF",">140",168,146,141,null,"DAYS",6001],
[468,"CDISCPILOT01","710","710","01-710-1154",19811,19840,"Xanomeline Low Dose",54,84,">80",3,"WHITE",1,"M","Y","Y","N","Week 8",8,"WEEK 6",7,42,19852,"CIBICVAL","CIBIC Score",1,4,"Y","","2-84",56,14,2,84,"DAYS",6001],
[469,"CDISCPILOT01","710","710","01-710-1154",19811,19840,"Xanomeline Low Dose",54,84,">80",3,"WHITE",1,"M","Y","Y","N","Week 16",16,"WEEK 6",7,42,19852,"CIBICVAL","CIBIC Score",1,4,"Y","LOCF","85-140",112,70,85,140,"DAYS",6001],
[470,"CDISCPILOT01","710","710","01-710-1154",19811,19840,"Xanomeline Low Dose",54,84,">80",3,"WHITE",1,"M","Y","Y","N","Week 24",24,"WEEK 6",7,42,19852,"CIBICVAL","CIBIC Score",1,4,"Y","LOCF",">140",168,126,141,null,"DAYS",6001],
[471,"CDISCPILOT01","710","710","01-710-1166",19327,19436,"Xanomeline Low Dose",54,81,">80",3,"WHITE",1,"F","Y","Y","N","Week 8",8,"WEEK 8",8,57,19383,"CIBICVAL","CIBIC Score",1,4,"Y","","2-84",56,1,2,84,"DAYS",6001],
[472,"CDISCPILOT01","710","710","01-710-1166",19327,19436,"Xanomeline Low Dose",54,81,">80",3,"WHITE",1,"F","Y","Y","N","Week 16",16,"WEEK 8",8,57,19383,"CIBICVAL","CIBIC Score",1,4,"Y","LOCF","85-140",112,55,85,140,"DAYS",6001],
[473,"CDISCPILOT01","710","710","01-710-1166",19327,19436,"Xanomeline Low Dose",54,81,">80",3,"WHITE",1,"F","Y","Y","N","Week 24",24,"WEEK 8",8,57,19383,"CIBICVAL","CIBIC Score",1,4,"Y","LOCF",">140",168,111,141,null,"DAYS",6001],
[474,"CDISCPILOT01","710","710","01-710-1183",19678,19860,"Placebo",0,80,"65-80",2,"WHITE",1,"F","Y","Y","Y","Week 8",8,"WEEK 8",8,57,19734,"CIBICVAL","CIBIC Score",1,3,"Y","","2-84",56,1,2,84,"DAYS",6001],
[475,"CDISCPILOT01","710","710","01-710-1183",19678,19860,"Placebo",0,80,"65-80",2,"WHITE",1,"F","Y","Y","Y","Week 16",16,"WEEK 16",10,115,19792,"CIBICVAL","CIBIC Score",1,3,"Y","","85-140",112,3,85,140,"DAYS",6002],
[476,"CDISCPILOT01","710","710","01-710-1183",19678,19860,"Placebo",0,80,"65-80",2,"WHITE",1,"F","Y","Y","Y","Week 24",24,"WEEK 24",12,169,19846,"CIBICVAL","CIBIC Score",1,4,"Y","",">140",168,1,141,null,"DAYS",6003],
[477,"CDISCPILOT01","710","710","01-710-1187",19307,19490,"Xanomeline High Dose",81,78,"65-80",2,"WHITE",1,"F","Y","Y","Y","Week 8",8,"WEEK 8",8,58,19364,"CIBICVAL","CIBIC Score",1,5,"Y","","2-84",56,2,2,84,"DAYS",6001],
[478,"CDISCPILOT01","710","710","01-710-1187",19307,19490,"Xanomeline High Dose",81,78,"65-80",2,"WHITE",1,"F","Y","Y","Y","Week 16",16,"WEEK 16",10,113,19419,"CIBICVAL","CIBIC Score",1,4,"Y","","85-140",112,1,85,140,"DAYS",6002],
[479,"CDISCPILOT01","710","710","01-710-1187",19307,19490,"Xanomeline High Dose",81,78,"65-80",2,"WHITE",1,"F","Y","Y","Y","Week 24",24,"WEEK 24",12,170,19476,"CIBICVAL","CIBIC Score",1,6,"Y","",">140",168,2,141,null,"DAYS",6003],
[480,"CDISCPILOT01","710","710","01-710-1235",19262,19444,"Xanomeline Low Dose",54,56,"<65",1,"WHITE",1,"F","Y","Y","Y","Week 8",8,"WEEK 8",8,57,19318,"CIBICVAL","CIBIC Score",1,4,"Y","","2-84",56,1,2,84,"DAYS",6001],
[481,"CDISCPILOT01","710","710","01-710-1235",19262,19444,"Xanomeline Low Dose",54,56,"<65",1,"WHITE",1,"F","Y","Y","Y","Week 16",16,"WEEK 16",10,112,19373,"CIBICVAL","CIBIC Score",1,3,"Y","","85-140",112,0,85,140,"DAYS",6002],
[482,"CDISCPILOT01","710","710","01-710-1235",19262,19444,"Xanomeline Low Dose",54,56,"<65",1,"WHITE",1,"F","Y","Y","Y","Week 24",24,"WEEK 24",12,169,19430,"CIBICVAL","CIBIC Score",1,3,"Y","",">140",168,1,141,null,"DAYS",6003],
[483,"CDISCPILOT01","710","710","01-710-1249",19720,19902,"Xanomeline High Dose",81,79,"65-80",2,"WHITE",1,"M","Y","Y","Y","Week 8",8,"WEEK 8",8,57,19776,"CIBICVAL","CIBIC Score",1,4,"Y","","2-84",56,1,2,84,"DAYS",6001],
[484,"CDISCPILOT01","710","710","01-710-1249",19720,19902,"Xanomeline High Dose",81,79,"65-80",2,"WHITE",1,"M","Y","Y","Y","Week 16",16,"WEEK 16",10,113,19832,"CIBICVAL","CIBIC Score",1,5,"Y","","85-140",112,1,85,140,"DAYS",6002],
[485,"CDISCPILOT01","710","710","01-710-1249",19720,19902,"Xanomeline High Dose",81,79,"65-80",2,"WHITE",1,"M","Y","Y","Y","Week 24",24,"WEEK 24",12,169,19888,"CIBICVAL","CIBIC Score",1,5,"Y","",">140",168,1,141,null,"DAYS",6003],
[486,"CDISCPILOT01","710","710","01-710-1264",19522,19642,"Placebo",0,78,"65-80",2,"WHITE",1,"M","Y","Y","N","Week 8",8,"WEEK 8",8,57,19578,"CIBICVAL","CIBIC Score",1,5,"Y","","2-84",56,1,2,84,"DAYS",6001],
[487,"CDISCPILOT01","710","710","01-710-1264",19522,19642,"Placebo",0,78,"65-80",2,"WHITE",1,"M","Y","Y","N","Week 16",16,"WEEK 16",10,111,19632,"CIBICVAL","CIBIC Score",1,4,"Y","","85-140",112,1,85,140,"DAYS",6002],
[488,"CDISCPILOT01","710","710","01-710-1264",19522,19642,"Placebo",0,78,"65-80",2,"WHITE",1,"M","Y","Y","N","Week 16",16,"WEEK 20",11,122,19643,"CIBICVAL","CIBIC Score",1,4,"","","85-140",112,10,85,140,"DAYS",6003],
[489,"CDISCPILOT01","710","710","01-710-1264",19522,19642,"Placebo",0,78,"65-80",2,"WHITE",1,"M","Y","Y","N","Week 24",24,"WEEK 20",11,122,19643,"CIBICVAL","CIBIC Score",1,4,"Y","LOCF",">140",168,46,141,null,"DAYS",6003],
[490,"CDISCPILOT01","710","710","01-710-1270",19766,19783,"Xanomeline Low Dose",54,83,">80",3,"WHITE",1,"F","Y","Y","N","Week 8",8,"WEEK 2",4,18,19783,"CIBICVAL","CIBIC Score",1,4,"Y","","2-84",56,38,2,84,"DAYS",6001],
[491,"CDISCPILOT01","710","710","01-710-1270",19766,19783,"Xanomeline Low Dose",54,83,">80",3,"WHITE",1,"F","Y","Y","N","Week 16",16,"WEEK 2",4,18,19783,"CIBICVAL","CIBIC Score",1,4,"Y","LOCF","85-140",112,94,85,140,"DAYS",6001],
[492,"CDISCPILOT01","710","710","01-710-1270",19766,19783,"Xanomeline Low Dose",54,83,">80",3,"WHITE",1,"F","Y","Y","N","Week 24",24,"WEEK 2",4,18,19783,"CIBICVAL","CIBIC Score",1,4,"Y","LOCF",">140",168,150,141,null,"DAYS",6001],
[493,"CDISCPILOT01","710","710","01-710-1278",19351,19415,"Xanomeline High Dose",81,81,">80",3,"WHITE",1,"M","Y","Y","N","Week 8",8,"WEEK 8",8,60,19410,"CIBICVAL","CIBIC Score",1,3,"Y","","2-84",56,4,2,84,"DAYS",6001],
[494,"CDISCPILOT01","710","710","01-710-1278",19351,19415,"Xanomeline High Dose",81,81,">80",3,"WHITE",1,"M","Y","Y","N","Week 8",8,"WEEK 12",9,70,19420,"CIBICVAL","CIBIC Score",1,3,"","","2-84",56,14,2,84,"DAYS",6002],
[495,"CDISCPILOT01","710","710","01-710-1278",19351,19415,"Xanomeline High Dose",81,81,">80",3,"WHITE",1,"M","Y","Y","N","Week 16",16,"WEEK 12",9,70,19420,"CIBICVAL","CIBIC Score",1,3,"Y","LOCF","85-140",112,42,85,140,"DAYS",6002],
[496,"CDISCPILOT01","710","710","01-710-1278",19351,19415,"Xanomeline High Dose",81,81,">80",3,"WHITE",1,"M","Y","Y","N","Week 24",24,"WEEK 12",9,70,19420,"CIBICVAL","CIBIC Score",1,3,"Y","LOCF",">140",168,98,141,null,"DAYS",6002],
[497,"CDISCPILOT01","710","710","01-710-1300",19342,19404,"Xanomeline Low Dose",54,78,"65-80",2,"WHITE",1,"F","Y","Y","N","Week 8",8,"WEEK 8",8,59,19400,"CIBICVAL","CIBIC Score",1,4,"Y","","2-84",56,3,2,84,"DAYS",6001],
[498,"CDISCPILOT01","710","710","01-710-1300",19342,19404,"Xanomeline Low Dose",54,78,"65-80",2,"WHITE",1,"F","Y","Y","N","Week 8",8,"WEEK 12",9,67,19408,"CIBICVAL","CIBIC Score",1,4,"","","2-84",56,11,2,84,"DAYS",6002],
[499,"CDISCPILOT01","710","710","01-710-1300",19342,19404,"Xanomeline Low Dose",54,78,"65-80",2,"WHITE",1,"F","Y","Y","N","Week 16",16,"WEEK 12",9,67,19408,"CIBICVAL","CIBIC Score",1,4,"Y","LOCF","85-140",112,45,85,140,"DAYS",6002],
[500,"CDISCPILOT01","710","710","01-710-1300",19342,19404,"Xanomeline Low Dose",54,78,"65-80",2,"WHITE",1,"F","Y","Y","N","Week 24",24,"WEEK 12",9,67,19408,"CIBICVAL","CIBIC Score",1,4,"Y","LOCF",">140",168,101,141,null,"DAYS",6002],
[501,"CDISCPILOT01","710","710","01-710-1315",19416,19545,"Placebo",0,83,">80",3,"WHITE",1,"F","Y","Y","N","Week 8",8,"WEEK 8",8,56,19471,"CIBICVAL","CIBIC Score",1,4,"Y","","2-84",56,0,2,84,"DAYS",6001],
[502,"CDISCPILOT01","710","710","01-710-1315",19416,19545,"Placebo",0,83,">80",3,"WHITE",1,"F","Y","Y","N","Week 16",16,"WEEK 16",10,112,19527,"CIBICVAL","CIBIC Score",1,4,"Y","","85-140",112,0,85,140,"DAYS",6002],
[503,"CDISCPILOT01","710","710","01-710-1315",19416,19545,"Placebo",0,83,">80",3,"WHITE",1,"F","Y","Y","N","Week 16",16,"WEEK 20",11,140,19555,"CIBICVAL","CIBIC Score",1,4,"","","85-140",112,28,85,140,"DAYS",6003],
[504,"CDISCPILOT01","710","710","01-710-1315",19416,19545,"Placebo",0,83,">80",3,"WHITE",1,"F","Y","Y","N","Week 24",24,"WEEK 20",11,140,19555,"CIBICVAL","CIBIC Score",1,4,"Y","LOCF",">140",168,28,141,null,"DAYS",6003],
[505,"CDISCPILOT01","710","710","01-710-1354",19308,19479,"Xanomeline High Dose",81,73,"65-80",2,"WHITE",1,"M","Y","Y","Y","Week 8",8,"WEEK 8",8,57,19364,"CIBICVAL","CIBIC Score",1,5,"Y","","2-84",56,1,2,84,"DAYS",6001],
[506,"CDISCPILOT01","710","710","01-710-1354",19308,19479,"Xanomeline High Dose",81,73,"65-80",2,"WHITE",1,"M","Y","Y","Y","Week 16",16,"WEEK 16",10,112,19419,"CIBICVAL","CIBIC Score",1,5,"Y","","85-140",112,0,85,140,"DAYS",6002],
[507,"CDISCPILOT01","710","710","01-710-1354",19308,19479,"Xanomeline High Dose",81,73,"65-80",2,"WHITE",1,"M","Y","Y","Y","Week 24",24,"WEEK 24",12,162,19469,"CIBICVAL","CIBIC Score",1,5,"Y","",">140",168,6,141,null,"DAYS",6003],
[508,"CDISCPILOT01","710","710","01-710-1358",19253,19398,"Xanomeline Low Dose",54,82,">80",3,"WHITE",1,"M","Y","Y","Y","Week 8",8,"WEEK 8",8,59,19311,"CIBICVAL","CIBIC Score",1,4,"Y","","2-84",56,3,2,84,"DAYS",6001],
[509,"CDISCPILOT01","710","710","01-710-1358",19253,19398,"Xanomeline Low Dose",54,82,">80",3,"WHITE",1,"M","Y","Y","Y","Week 16",16,"WEEK 16",10,115,19367,"CIBICVAL","CIBIC Score",1,5,"Y","","85-140",112,3,85,140,"DAYS",6002],
[510,"CDISCPILOT01","710","710","01-710-1358",19253,19398,"Xanomeline Low Dose",54,82,">80",3,"WHITE",1,"M","Y","Y","Y","Week 24",24,"WEEK 16",10,115,19367,"CIBICVAL","CIBIC Score",1,5,"Y","LOCF",">140",168,53,141,null,"DAYS",6002],
[511,"CDISCPILOT01","710","710","01-710-1368",19654,19837,"Placebo",0,88,">80",3,"WHITE",1,"F","Y","Y","Y","Week 8",8,"WEEK 8",8,58,19711,"CIBICVAL","CIBIC Score",1,4,"Y","","2-84",56,2,2,84,"DAYS",6001],
[512,"CDISCPILOT01","710","710","01-710-1368",19654,19837,"Placebo",0,88,">80",3,"WHITE",1,"F","Y","Y","Y","Week 16",16,"WEEK 16",10,113,19766,"CIBICVAL","CIBIC Score",1,5,"Y","","85-140",112,1,85,140,"DAYS",6002],
[513,"CDISCPILOT01","710","710","01-710-1368",19654,19837,"Placebo",0,88,">80",3,"WHITE",1,"F","Y","Y","Y","Week 24",24,"WEEK 24",12,169,19822,"CIBICVAL","CIBIC Score",1,5,"Y","",">140",168,1,141,null,"DAYS",6003],
[514,"CDISCPILOT01","710","710","01-710-1385",19295,19407,"Xanomeline Low Dose",54,77,"65-80",2,"WHITE",1,"M","Y","Y","N","Week 8",8,"WEEK 8",8,58,19352,"CIBICVAL","CIBIC Score",1,3,"Y","","2-84",56,2,2,84,"DAYS",6001],
[515,"CDISCPILOT01","710","710","01-710-1385",19295,19407,"Xanomeline Low Dose",54,77,"65-80",2,"WHITE",1,"M","Y","Y","N","Week 16",16,"WEEK 16",10,113,19407,"CIBICVAL","CIBIC Score",1,2,"Y","","85-140",112,1,85,140,"DAYS",6002],
[516,"CDISCPILOT01","710","710","01-710-1385",19295,19407,"Xanomeline Low Dose",54,77,"65-80",2,"WHITE",1,"M","Y","Y","N","Week 24",24,"WEEK 16",10,113,19407,"CIBICVAL","CIBIC Score",1,2,"Y","LOCF",">140",168,55,141,null,"DAYS",6002],
[517,"CDISCPILOT01","710","710","01-710-1408",19363,19551,"Xanomeline High Dose",81,80,"65-80",2,"WHITE",1,"M","Y","Y","Y","Week 8",8,"WEEK 8",8,62,19424,"CIBICVAL","CIBIC Score",1,4,"Y","","2-84",56,6,2,84,"DAYS",6001],
[518,"CDISCPILOT01","710","710","01-710-1408",19363,19551,"Xanomeline High Dose",81,80,"65-80",2,"WHITE",1,"M","Y","Y","Y","Week 16",16,"WEEK 16",10,119,19481,"CIBICVAL","CIBIC Score",1,4,"Y","","85-140",112,7,85,140,"DAYS",6002],
[519,"CDISCPILOT01","710","710","01-710-1408",19363,19551,"Xanomeline High Dose",81,80,"65-80",2,"WHITE",1,"M","Y","Y","Y","Week 24",24,"WEEK 24",12,175,19537,"CIBICVAL","CIBIC Score",1,4,"Y","",">140",168,7,141,null,"DAYS",6003],
[520,"CDISCPILOT01","711","900","01-711-1012",19451,19477,"Xanomeline High Dose",81,67,"65-80",2,"WHITE",1,"F","Y","Y","N","Week 8",8,"WEEK 4",5,30,19480,"CIBICVAL","CIBIC Score",1,4,"Y","","2-84",56,26,2,84,"DAYS",6001],
[521,"CDISCPILOT01","711","900","01-711-1012",19451,19477,"Xanomeline High Dose",81,67,"65-80",2,"WHITE",1,"F","Y","Y","N","Week 16",16,"WEEK 4",5,30,19480,"CIBICVAL","CIBIC Score",1,4,"Y","LOCF","85-140",112,82,85,140,"DAYS",6001],
[522,"CDISCPILOT01","711","900","01-711-1012",19451,19477,"Xanomeline High Dose",81,67,"65-80",2,"WHITE",1,"F","Y","Y","N","Week 24",24,"RETRIEVAL",201,169,19619,"CIBICVAL","CIBIC Score",1,5,"Y","",">140",168,1,141,null,"DAYS",6002],
[523,"CDISCPILOT01","711","900","01-711-1036",19203,19399,"Placebo",0,70,"65-80",2,"BLACK OR AFRICAN AMERICAN",2,"M","Y","Y","Y","Week 8",8,"WEEK 8",8,57,19259,"CIBICVAL","CIBIC Score",1,4,"Y","","2-84",56,1,2,84,"DAYS",6001],
[524,"CDISCPILOT01","711","900","01-711-1036",19203,19399,"Placebo",0,70,"65-80",2,"BLACK OR AFRICAN AMERICAN",2,"M","Y","Y","Y","Week 16",16,"WEEK 16",10,112,19314,"CIBICVAL","CIBIC Score",1,5,"Y","","85-140",112,0,85,140,"DAYS",6002],
[525,"CDISCPILOT01","711","900","01-711-1036",19203,19399,"Placebo",0,70,"65-80",2,"BLACK OR AFRICAN AMERICAN",2,"M","Y","Y","Y","Week 24",24,"WEEK 24",12,169,19371,"CIBICVAL","CIBIC Score",1,5,"Y","",">140",168,1,141,null,"DAYS",6003],
[526,"CDISCPILOT01","711","900","01-711-1143",19451,19508,"Xanomeline Low Dose",54,76,"65-80",2,"WHITE",1,"F","Y","Y","N","Week 8",8,"WEEK 8",8,56,19506,"CIBICVAL","CIBIC Score",1,3,"Y","","2-84",56,0,2,84,"DAYS",6001],
[527,"CDISCPILOT01","711","900","01-711-1143",19451,19508,"Xanomeline Low Dose",54,76,"65-80",2,"WHITE",1,"F","Y","Y","N","Week 8",8,"WEEK 12",9,60,19510,"CIBICVAL","CIBIC Score",1,3,"","","2-84",56,4,2,84,"DAYS",6002],
[528,"CDISCPILOT01","711","900","01-711-1143",19451,19508,"Xanomeline Low Dose",54,76,"65-80",2,"WHITE",1,"F","Y","Y","N","Week 16",16,"WEEK 12",9,60,19510,"CIBICVAL","CIBIC Score",1,3,"Y","LOCF","85-140",112,52,85,140,"DAYS",6002],
[529,"CDISCPILOT01","711","900","01-711-1143",19451,19508,"Xanomeline Low Dose",54,76,"65-80",2,"WHITE",1,"F","Y","Y","N","Week 24",24,"RETRIEVAL",201,173,19623,"CIBICVAL","CIBIC Score",1,4,"Y","",">140",168,5,141,null,"DAYS",6003],
[530,"CDISCPILOT01","713","713","01-713-1043",19616,19806,"Xanomeline Low Dose",54,78,"65-80",2,"WHITE",1,"F","Y","Y","Y","Week 8",8,"WEEK 8",8,58,19673,"CIBICVAL","CIBIC Score",1,4,"Y","","2-84",56,2,2,84,"DAYS",6001],
[531,"CDISCPILOT01","713","713","01-713-1043",19616,19806,"Xanomeline Low Dose",54,78,"65-80",2,"WHITE",1,"F","Y","Y","Y","Week 16",16,"WEEK 16",10,111,19726,"CIBICVAL","CIBIC Score",1,4,"Y","","85-140",112,1,85,140,"DAYS",6002],
[532,"CDISCPILOT01","713","713","01-713-1043",19616,19806,"Xanomeline Low Dose",54,78,"65-80",2,"WHITE",1,"F","Y","Y","Y","Week 24",24,"WEEK 24",12,167,19782,"CIBICVAL","CIBIC Score",1,4,"Y","",">140",168,1,141,null,"DAYS",6003],
[533,"CDISCPILOT01","713","713","01-713-1073",19812,20001,"Xanomeline Low Dose",54,74,"65-80",2,"BLACK OR AFRICAN AMERICAN",2,"F","Y","Y","Y","Week 8",8,"WEEK 8",8,57,19868,"CIBICVAL","CIBIC Score",1,3,"Y","","2-84",56,1,2,84,"DAYS",6001],
[534,"CDISCPILOT01","713","713","01-713-1073",19812,20001,"Xanomeline Low Dose",54,74,"65-80",2,"BLACK OR AFRICAN AMERICAN",2,"F","Y","Y","Y","Week 16",16,"WEEK 16",10,114,19925,"CIBICVAL","CIBIC Score",1,4,"Y","","85-140",112,2,85,140,"DAYS",6002],
[535,"CDISCPILOT01","713","713","01-713-1073",19812,20001,"Xanomeline Low Dose",54,74,"65-80",2,"BLACK OR AFRICAN AMERICAN",2,"F","Y","Y","Y","Week 24",24,"WEEK 24",12,176,19987,"CIBICVAL","CIBIC Score",1,5,"Y","",">140",168,8,141,null,"DAYS",6003],
[536,"CDISCPILOT01","713","713","01-713-1106",19297,19484,"Xanomeline High Dose",81,74,"65-80",2,"WHITE",1,"M","Y","Y","Y","Week 8",8,"WEEK 8",8,58,19354,"CIBICVAL","CIBIC Score",1,3,"Y","","2-84",56,2,2,84,"DAYS",6001],
[537,"CDISCPILOT01","713","713","01-713-1106",19297,19484,"Xanomeline High Dose",81,74,"65-80",2,"WHITE",1,"M","Y","Y","Y","Week 16",16,"WEEK 16",10,120,19416,"CIBICVAL","CIBIC Score",1,3,"Y","","85-140",112,8,85,140,"DAYS",6002],
[538,"CDISCPILOT01","713","713","01-713-1106",19297,19484,"Xanomeline High Dose",81,74,"65-80",2,"WHITE",1,"M","Y","Y","Y","Week 24",24,"WEEK 24",12,174,19470,"CIBICVAL","CIBIC Score",1,3,"Y","",">140",168,6,141,null,"DAYS",6003],
[539,"CDISCPILOT01","713","713","01-713-1179",19579,19759,"Placebo",0,64,"<65",1,"WHITE",1,"F","Y","Y","Y","Week 8",8,"WEEK 8",8,57,19635,"CIBICVAL","CIBIC Score",1,4,"Y","","2-84",56,1,2,84,"DAYS",6001],
[540,"CDISCPILOT01","713","713","01-713-1179",19579,19759,"Placebo",0,64,"<65",1,"WHITE",1,"F","Y","Y","Y","Week 16",16,"WEEK 16",10,110,19688,"CIBICVAL","CIBIC Score",1,5,"Y","","85-140",112,2,85,140,"DAYS",6002],
[541,"CDISCPILOT01","713","713","01-713-1179",19579,19759,"Placebo",0,64,"<65",1,"WHITE",1,"F","Y","Y","Y","Week 24",24,"WEEK 24",12,169,19747,"CIBICVAL","CIBIC Score",1,2,"Y","",">140",168,1,141,null,"DAYS",6003],
[542,"CDISCPILOT01","713","713","01-713-1209",19505,19684,"Xanomeline High Dose",81,77,"65-80",2,"WHITE",1,"F","Y","Y","Y","Week 8",8,"WEEK 8",8,57,19561,"CIBICVAL","CIBIC Score",1,5,"Y","","2-84",56,1,2,84,"DAYS",6001],
[543,"CDISCPILOT01","713","713","01-713-1209",19505,19684,"Xanomeline High Dose",81,77,"65-80",2,"WHITE",1,"F","Y","Y","Y","Week 16",16,"WEEK 16",10,112,19616,"CIBICVAL","CIBIC Score",1,5,"Y","","85-140",112,0,85,140,"DAYS",6002],
[544,"CDISCPILOT01","713","713","01-713-1209",19505,19684,"Xanomeline High Dose",81,77,"65-80",2,"WHITE",1,"F","Y","Y","Y","Week 24",24,"WEEK 24",12,172,19676,"CIBICVAL","CIBIC Score",1,5,"Y","",">140",168,4,141,null,"DAYS",6003],
[545,"CDISCPILOT01","713","713","01-713-1256",19255,19442,"Placebo",0,71,"65-80",2,"WHITE",1,"M","Y","Y","Y","Week 8",8,"WEEK 8",8,57,19311,"CIBICVAL","CIBIC Score",1,4,"Y","","2-84",56,1,2,84,"DAYS",6001],
[546,"CDISCPILOT01","713","713","01-713-1256",19255,19442,"Placebo",0,71,"65-80",2,"WHITE",1,"M","Y","Y","Y","Week 16",16,"WEEK 16",10,112,19366,"CIBICVAL","CIBIC Score",1,5,"Y","","85-140",112,0,85,140,"DAYS",6002],
[547,"CDISCPILOT01","713","713","01-713-1256",19255,19442,"Placebo",0,71,"65-80",2,"WHITE",1,"M","Y","Y","Y","Week 24",24,"WEEK 24",12,172,19426,"CIBICVAL","CIBIC Score",1,6,"Y","",">140",168,4,141,null,"DAYS",6003],
[548,"CDISCPILOT01","713","713","01-713-1269",19750,19932,"Placebo",0,73,"65-80",2,"WHITE",1,"M","Y","Y","Y","Week 8",8,"WEEK 8",8,56,19805,"CIBICVAL","CIBIC Score",1,4,"Y","","2-84",56,0,2,84,"DAYS",6001],
[549,"CDISCPILOT01","713","713","01-713-1269",19750,19932,"Placebo",0,73,"65-80",2,"WHITE",1,"M","Y","Y","Y","Week 16",16,"WEEK 16",10,113,19862,"CIBICVAL","CIBIC Score",1,5,"Y","","85-140",112,1,85,140,"DAYS",6002],
[550,"CDISCPILOT01","713","713","01-713-1269",19750,19932,"Placebo",0,73,"65-80",2,"WHITE",1,"M","Y","Y","Y","Week 24",24,"WEEK 24",12,168,19917,"CIBICVAL","CIBIC Score",1,5,"Y","",">140",168,0,141,null,"DAYS",6003],
[551,"CDISCPILOT01","713","713","01-713-1448",19742,19859,"Xanomeline Low Dose",54,71,"65-80",2,"WHITE",1,"F","Y","Y","N","Week 8",8,"WEEK 8",8,58,19799,"CIBICVAL","CIBIC Score",1,4,"Y","","2-84",56,2,2,84,"DAYS",6001],
[552,"CDISCPILOT01","713","713","01-713-1448",19742,19859,"Xanomeline Low Dose",54,71,"65-80",2,"WHITE",1,"F","Y","Y","N","Week 16",16,"WEEK 16",10,119,19860,"CIBICVAL","CIBIC Score",1,5,"Y","","85-140",112,7,85,140,"DAYS",6002],
[553,"CDISCPILOT01","713","713","01-713-1448",19742,19859,"Xanomeline Low Dose",54,71,"65-80",2,"WHITE",1,"F","Y","Y","N","Week 24",24,"WEEK 16",10,119,19860,"CIBICVAL","CIBIC Score",1,5,"Y","LOCF",">140",168,49,141,null,"DAYS",6002],
[554,"CDISCPILOT01","714","900","01-714-1035",19830,20012,"Placebo",0,88,">80",3,"WHITE",1,"F","Y","Y","Y","Week 8",8,"WEEK 8",8,62,19891,"CIBICVAL","CIBIC Score",1,4,"Y","","2-84",56,6,2,84,"DAYS",6001],
[555,"CDISCPILOT01","714","900","01-714-1035",19830,20012,"Placebo",0,88,">80",3,"WHITE",1,"F","Y","Y","Y","Week 16",16,"WEEK 16",10,112,19941,"CIBICVAL","CIBIC Score",1,4,"Y","","85-140",112,0,85,140,"DAYS",6002],
[556,"CDISCPILOT01","714","900","01-714-1035",19830,20012,"Placebo",0,88,">80",3,"WHITE",1,"F","Y","Y","Y","Week 24",24,"WEEK 24",12,169,19998,"CIBICVAL","CIBIC Score",1,4,"Y","",">140",168,1,141,null,"DAYS",6003],
[557,"CDISCPILOT01","714","900","01-714-1068",19578,19639,"Xanomeline Low Dose",54,79,"65-80",2,"WHITE",1,"F","Y","Y","N","Week 8",8,"WEEK 8",8,57,19634,"CIBICVAL","CIBIC Score",1,4,"Y","","2-84",56,1,2,84,"DAYS",6001],
[558,"CDISCPILOT01","714","900","01-714-1068",19578,19639,"Xanomeline Low Dose",54,79,"65-80",2,"WHITE",1,"F","Y","Y","N","Week 8",8,"WEEK 12",9,70,19647,"CIBICVAL","CIBIC Score",1,4,"","","2-84",56,14,2,84,"DAYS",6002],
[559,"CDISCPILOT01","714","900","01-714-1068",19578,19639,"Xanomeline Low Dose",54,79,"65-80",2,"WHITE",1,"F","Y","Y","N","Week 16",16,"WEEK 12",9,70,19647,"CIBICVAL","CIBIC Score",1,4,"Y","LOCF","85-140",112,42,85,140,"DAYS",6002],
[560,"CDISCPILOT01","714","900","01-714-1068",19578,19639,"Xanomeline Low Dose",54,79,"65-80",2,"WHITE",1,"F","Y","Y","N","Week 24",24,"WEEK 12",9,70,19647,"CIBICVAL","CIBIC Score",1,4,"Y","LOCF",">140",168,98,141,null,"DAYS",6002],
[561,"CDISCPILOT01","714","900","01-714-1195",19474,19654,"Xanomeline Low Dose",54,75,"65-80",2,"WHITE",1,"M","Y","Y","Y","Week 8",8,"WEEK 8",8,56,19529,"CIBICVAL","CIBIC Score",1,3,"Y","","2-84",56,0,2,84,"DAYS",6001],
[562,"CDISCPILOT01","714","900","01-714-1195",19474,19654,"Xanomeline Low Dose",54,75,"65-80",2,"WHITE",1,"M","Y","Y","Y","Week 16",16,"WEEK 16",10,106,19579,"CIBICVAL","CIBIC Score",1,2,"Y","","85-140",112,6,85,140,"DAYS",6002],
[563,"CDISCPILOT01","714","900","01-714-1195",19474,19654,"Xanomeline Low Dose",54,75,"65-80",2,"WHITE",1,"M","Y","Y","Y","Week 24",24,"WEEK 24",12,168,19641,"CIBICVAL","CIBIC Score",1,3,"Y","",">140",168,0,141,null,"DAYS",6003],
[564,"CDISCPILOT01","714","900","01-714-1288",19696,19891,"Xanomeline High Dose",81,77,"65-80",2,"BLACK OR AFRICAN AMERICAN",2,"M","Y","Y","Y","Week 8",8,"WEEK 8",8,61,19756,"CIBICVAL","CIBIC Score",1,3,"Y","","2-84",56,5,2,84,"DAYS",6001],
[565,"CDISCPILOT01","714","900","01-714-1288",19696,19891,"Xanomeline High Dose",81,77,"65-80",2,"BLACK OR AFRICAN AMERICAN",2,"M","Y","Y","Y","Week 16",16,"WEEK 16",10,119,19814,"CIBICVAL","CIBIC Score",1,4,"Y","","85-140",112,7,85,140,"DAYS",6002],
[566,"CDISCPILOT01","714","900","01-714-1288",19696,19891,"Xanomeline High Dose",81,77,"65-80",2,"BLACK OR AFRICAN AMERICAN",2,"M","Y","Y","Y","Week 24",24,"WEEK 24",12,175,19870,"CIBICVAL","CIBIC Score",1,3,"Y","",">140",168,7,141,null,"DAYS",6003],
[567,"CDISCPILOT01","714","900","01-714-1375",19415,19608,"Placebo",0,78,"65-80",2,"WHITE",1,"F","Y","Y","Y","Week 8",8,"WEEK 8",8,60,19474,"CIBICVAL","CIBIC Score",1,4,"Y","","2-84",56,4,2,84,"DAYS",6001],
[568,"CDISCPILOT01","714","900","01-714-1375",19415,19608,"Placebo",0,78,"65-80",2,"WHITE",1,"F","Y","Y","Y","Week 16",16,"WEEK 16",10,117,19531,"CIBICVAL","CIBIC Score",1,4,"Y","","85-140",112,5,85,140,"DAYS",6002],
[569,"CDISCPILOT01","714","900","01-714-1375",19415,19608,"Placebo",0,78,"65-80",2,"WHITE",1,"F","Y","Y","Y","Week 24",24,"WEEK 24",12,179,19593,"CIBICVAL","CIBIC Score",1,3,"Y","",">140",168,11,141,null,"DAYS",6003],
[570,"CDISCPILOT01","714","900","01-714-1425",19585,19589,"Xanomeline High Dose",81,81,">80",3,"WHITE",1,"M","Y","Y","N","Week 8",8,"WEEK 2",4,8,19592,"CIBICVAL","CIBIC Score",1,4,"Y","","2-84",56,48,2,84,"DAYS",6001],
[571,"CDISCPILOT01","714","900","01-714-1425",19585,19589,"Xanomeline High Dose",81,81,">80",3,"WHITE",1,"M","Y","Y","N","Week 16",16,"WEEK 2",4,8,19592,"CIBICVAL","CIBIC Score",1,4,"Y","LOCF","85-140",112,104,85,140,"DAYS",6001],
[572,"CDISCPILOT01","714","900","01-714-1425",19585,19589,"Xanomeline High Dose",81,81,">80",3,"WHITE",1,"M","Y","Y","N","Week 24",24,"WEEK 2",4,8,19592,"CIBICVAL","CIBIC Score",1,4,"Y","LOCF",">140",168,160,141,null,"DAYS",6001],
[573,"CDISCPILOT01","715","900","01-715-1085",19405,19588,"Xanomeline Low Dose",54,77,"65-80",2,"WHITE",1,"F","Y","Y","Y","Week 8",8,"WEEK 8",8,58,19462,"CIBICVAL","CIBIC Score",1,4,"Y","","2-84",56,2,2,84,"DAYS",6001],
[574,"CDISCPILOT01","715","900","01-715-1085",19405,19588,"Xanomeline Low Dose",54,77,"65-80",2,"WHITE",1,"F","Y","Y","Y","Week 16",16,"WEEK 16",10,114,19518,"CIBICVAL","CIBIC Score",1,4,"Y","","85-140",112,2,85,140,"DAYS",6002],
[575,"CDISCPILOT01","715","900","01-715-1085",19405,19588,"Xanomeline Low Dose",54,77,"65-80",2,"WHITE",1,"F","Y","Y","Y","Week 24",24,"WEEK 24",12,170,19574,"CIBICVAL","CIBIC Score",1,4,"Y","",">140",168,2,141,null,"DAYS",6003],
[576,"CDISCPILOT01","715","900","01-715-1107",19415,19485,"Xanomeline Low Dose",54,65,"65-80",2,"WHITE",1,"M","Y","Y","N","Week 8",8,"WEEK 8",8,57,19471,"CIBICVAL","CIBIC Score",1,4,"Y","","2-84",56,1,2,84,"DAYS",6001],
[577,"CDISCPILOT01","715","900","01-715-1107",19415,19485,"Xanomeline Low Dose",54,65,"65-80",2,"WHITE",1,"M","Y","Y","N","Week 8",8,"WEEK 12",9,77,19491,"CIBICVAL","CIBIC Score",1,4,"","","2-84",56,21,2,84,"DAYS",6002],
[578,"CDISCPILOT01","715","900","01-715-1107",19415,19485,"Xanomeline Low Dose",54,65,"65-80",2,"WHITE",1,"M","Y","Y","N","Week 16",16,"WEEK 12",9,77,19491,"CIBICVAL","CIBIC Score",1,4,"Y","LOCF","85-140",112,35,85,140,"DAYS",6002],
[579,"CDISCPILOT01","715","900","01-715-1107",19415,19485,"Xanomeline Low Dose",54,65,"65-80",2,"WHITE",1,"M","Y","Y","N","Week 24",24,"RETRIEVAL",201,170,19584,"CIBICVAL","CIBIC Score",1,5,"Y","",">140",168,2,141,null,"DAYS",6003],
[580,"CDISCPILOT01","715","900","01-715-1207",19315,19505,"Placebo",0,78,"65-80",2,"WHITE",1,"F","Y","Y","Y","Week 8",8,"WEEK 8",8,57,19371,"CIBICVAL","CIBIC Score",1,3,"Y","","2-84",56,1,2,84,"DAYS",6001],
[581,"CDISCPILOT01","715","900","01-715-1207",19315,19505,"Placebo",0,78,"65-80",2,"WHITE",1,"F","Y","Y","Y","Week 16",16,"WEEK 16",10,113,19427,"CIBICVAL","CIBIC Score",1,4,"Y","","85-140",112,1,85,140,"DAYS",6002],
[582,"CDISCPILOT01","715","900","01-715-1207",19315,19505,"Placebo",0,78,"65-80",2,"WHITE",1,"F","Y","Y","Y","Week 24",24,"WEEK 24",12,169,19483,"CIBICVAL","CIBIC Score",1,4,"Y","",">140",168,1,141,null,"DAYS",6003],
[583,"CDISCPILOT01","715","900","01-715-1319",19406,19422,"Xanomeline High Dose",81,65,"65-80",2,"WHITE",1,"M","Y","Y","N","Week 8",8,"WEEK 4",5,30,19435,"CIBICVAL","CIBIC Score",1,5,"Y","","2-84",56,26,2,84,"DAYS",6001],
[584,"CDISCPILOT01","715","900","01-715-1319",19406,19422,"Xanomeline High Dose",81,65,"65-80",2,"WHITE",1,"M","Y","Y","N","Week 16",16,"WEEK 4",5,30,19435,"CIBICVAL","CIBIC Score",1,5,"Y","LOCF","85-140",112,82,85,140,"DAYS",6001],
[585,"CDISCPILOT01","715","900","01-715-1319",19406,19422,"Xanomeline High Dose",81,65,"65-80",2,"WHITE",1,"M","Y","Y","N","Week 24",24,"WEEK 4",5,30,19435,"CIBICVAL","CIBIC Score",1,5,"Y","LOCF",">140",168,138,141,null,"DAYS",6001],
[586,"CDISCPILOT01","715","900","01-715-1321",19765,19834,"Xanomeline High Dose",81,75,"65-80",2,"WHITE",1,"F","Y","Y","N","Week 8",8,"WEEK 8",8,58,19822,"CIBICVAL","CIBIC Score",1,3,"Y","","2-84",56,2,2,84,"DAYS",6001],
[587,"CDISCPILOT01","715","900","01-715-1321",19765,19834,"Xanomeline High Dose",81,75,"65-80",2,"WHITE",1,"F","Y","Y","N","Week 8",8,"WEEK 12",9,71,19835,"CIBICVAL","CIBIC Score",1,5,"","","2-84",56,15,2,84,"DAYS",6002],
[588,"CDISCPILOT01","715","900","01-715-1321",19765,19834,"Xanomeline High Dose",81,75,"65-80",2,"WHITE",1,"F","Y","Y","N","Week 16",16,"WEEK 12",9,71,19835,"CIBICVAL","CIBIC Score",1,3,"Y","LOCF","85-140",112,41,85,140,"DAYS",6002],
[589,"CDISCPILOT01","715","900","01-715-1321",19765,19834,"Xanomeline High Dose",81,75,"65-80",2,"WHITE",1,"F","Y","Y","N","Week 24",24,"WEEK 12",9,71,19835,"CIBICVAL","CIBIC Score",1,3,"Y","LOCF",">140",168,97,141,null,"DAYS",6002],
[590,"CDISCPILOT01","715","900","01-715-1397",19451,19633,"Placebo",0,76,"65-80",2,"WHITE",1,"F","Y","Y","Y","Week 8",8,"WEEK 8",8,57,19507,"CIBICVAL","CIBIC Score",1,4,"Y","","2-84",56,1,2,84,"DAYS",6001],
[591,"CDISCPILOT01","715","900","01-715-1397",19451,19633,"Placebo",0,76,"65-80",2,"WHITE",1,"F","Y","Y","Y","Week 16",16,"WEEK 16",10,113,19563,"CIBICVAL","CIBIC Score",1,4,"Y","","85-140",112,1,85,140,"DAYS",6002],
[592,"CDISCPILOT01","715","900","01-715-1397",19451,19633,"Placebo",0,76,"65-80",2,"WHITE",1,"F","Y","Y","Y","Week 24",24,"WEEK 24",12,169,19619,"CIBICVAL","CIBIC Score",1,4,"Y","",">140",168,1,141,null,"DAYS",6003],
[593,"CDISCPILOT01","715","900","01-715-1405",19545,19546,"Xanomeline Low Dose",54,69,"65-80",2,"WHITE",1,"M","Y","Y","N","Week 8",8,"WEEK 2",4,8,19552,"CIBICVAL","CIBIC Score",1,4,"Y","","2-84",56,48,2,84,"DAYS",6001],
[594,"CDISCPILOT01","715","900","01-715-1405",19545,19546,"Xanomeline Low Dose",54,69,"65-80",2,"WHITE",1,"M","Y","Y","N","Week 16",16,"WEEK 2",4,8,19552,"CIBICVAL","CIBIC Score",1,4,"Y","LOCF","85-140",112,104,85,140,"DAYS",6001],
[595,"CDISCPILOT01","715","900","01-715-1405",19545,19546,"Xanomeline Low Dose",54,69,"65-80",2,"WHITE",1,"M","Y","Y","N","Week 24",24,"RETRIEVAL",201,190,19734,"CIBICVAL","CIBIC Score",1,5,"Y","",">140",168,22,141,null,"DAYS",6002],
[596,"CDISCPILOT01","716","716","01-716-1024",19183,19378,"Placebo",0,87,">80",3,"WHITE",1,"F","Y","Y","Y","Week 8",8,"WEEK 8",8,57,19239,"CIBICVAL","CIBIC Score",1,4,"Y","","2-84",56,1,2,84,"DAYS",6001],
[597,"CDISCPILOT01","716","716","01-716-1024",19183,19378,"Placebo",0,87,">80",3,"WHITE",1,"F","Y","Y","Y","Week 16",16,"WEEK 16",10,116,19298,"CIBICVAL","CIBIC Score",1,4,"Y","","85-140",112,4,85,140,"DAYS",6002],
[598,"CDISCPILOT01","716","716","01-716-1024",19183,19378,"Placebo",0,87,">80",3,"WHITE",1,"F","Y","Y","Y","Week 24",24,"WEEK 24",12,175,19357,"CIBICVAL","CIBIC Score",1,4,"Y","",">140",168,7,141,null,"DAYS",6003],
[599,"CDISCPILOT01","716","716","01-716-1026",19815,20012,"Placebo",0,73,"65-80",2,"WHITE",1,"F","Y","Y","Y","Week 8",8,"WEEK 8",8,58,19872,"CIBICVAL","CIBIC Score",1,3,"Y","","2-84",56,2,2,84,"DAYS",6001],
[600,"CDISCPILOT01","716","716","01-716-1026",19815,20012,"Placebo",0,73,"65-80",2,"WHITE",1,"F","Y","Y","Y","Week 16",16,"WEEK 16",10,121,19935,"CIBICVAL","CIBIC Score",1,5,"Y","","85-140",112,9,85,140,"DAYS",6002],
[601,"CDISCPILOT01","716","716","01-716-1026",19815,20012,"Placebo",0,73,"65-80",2,"WHITE",1,"F","Y","Y","Y","Week 24",24,"WEEK 24",12,179,19993,"CIBICVAL","CIBIC Score",1,4,"Y","",">140",168,11,141,null,"DAYS",6003],
[602,"CDISCPILOT01","716","716","01-716-1030",19720,19725,"Xanomeline High Dose",81,83,">80",3,"WHITE",1,"F","Y","Y","N","Week 8",8,"WEEK 2",4,14,19733,"CIBICVAL","CIBIC Score",1,4,"Y","","2-84",56,42,2,84,"DAYS",6001],
[603,"CDISCPILOT01","716","716","01-716-1030",19720,19725,"Xanomeline High Dose",81,83,">80",3,"WHITE",1,"F","Y","Y","N","Week 16",16,"WEEK 2",4,14,19733,"CIBICVAL","CIBIC Score",1,4,"Y","LOCF","85-140",112,98,85,140,"DAYS",6001],
[604,"CDISCPILOT01","716","716","01-716-1030",19720,19725,"Xanomeline High Dose",81,83,">80",3,"WHITE",1,"F","Y","Y","N","Week 24",24,"WEEK 2",4,14,19733,"CIBICVAL","CIBIC Score",1,4,"Y","LOCF",">140",168,154,141,null,"DAYS",6001],
[605,"CDISCPILOT01","716","716","01-716-1044",19475,19665,"Placebo",0,74,"65-80",2,"WHITE",1,"M","Y","Y","Y","Week 8",8,"WEEK 8",8,63,19537,"CIBICVAL","CIBIC Score",1,2,"Y","","2-84",56,7,2,84,"DAYS",6001],
[606,"CDISCPILOT01","716","716","01-716-1044",19475,19665,"Placebo",0,74,"65-80",2,"WHITE",1,"M","Y","Y","Y","Week 16",16,"WEEK 16",10,112,19586,"CIBICVAL","CIBIC Score",1,3,"Y","","85-140",112,0,85,140,"DAYS",6002],
[607,"CDISCPILOT01","716","716","01-716-1044",19475,19665,"Placebo",0,74,"65-80",2,"WHITE",1,"M","Y","Y","Y","Week 24",24,"WEEK 24",12,173,19647,"CIBICVAL","CIBIC Score",1,5,"Y","",">140",168,5,141,null,"DAYS",6003],
[608,"CDISCPILOT01","716","716","01-716-1063",19487,19595,"Xanomeline Low Dose",54,80,"65-80",2,"WHITE",1,"M","Y","Y","N","Week 8",8,"WEEK 8",8,57,19543,"CIBICVAL","CIBIC Score",1,5,"Y","","2-84",56,1,2,84,"DAYS",6001],
[609,"CDISCPILOT01","716","716","01-716-1063",19487,19595,"Xanomeline Low Dose",54,80,"65-80",2,"WHITE",1,"M","Y","Y","N","Week 16",16,"WEEK 16",10,112,19598,"CIBICVAL","CIBIC Score",1,4,"Y","","85-140",112,0,85,140,"DAYS",6002],
[610,"CDISCPILOT01","716","716","01-716-1063",19487,19595,"Xanomeline Low Dose",54,80,"65-80",2,"WHITE",1,"M","Y","Y","N","Week 24",24,"RETRIEVAL",201,193,19679,"CIBICVAL","CIBIC Score",1,6,"Y","",">140",168,25,141,null,"DAYS",6003],
[611,"CDISCPILOT01","716","716","01-716-1071",19517,19571,"Xanomeline High Dose",81,78,"65-80",2,"WHITE",1,"F","Y","Y","N","Week 8",8,"WEEK 8",8,55,19571,"CIBICVAL","CIBIC Score",1,4,"Y","","2-84",56,1,2,84,"DAYS",6001],
[612,"CDISCPILOT01","716","716","01-716-1071",19517,19571,"Xanomeline High Dose",81,78,"65-80",2,"WHITE",1,"F","Y","Y","N","Week 16",16,"WEEK 8",8,55,19571,"CIBICVAL","CIBIC Score",1,4,"Y","LOCF","85-140",112,57,85,140,"DAYS",6001],
[613,"CDISCPILOT01","716","716","01-716-1071",19517,19571,"Xanomeline High Dose",81,78,"65-80",2,"WHITE",1,"F","Y","Y","N","Week 24",24,"RETRIEVAL",201,192,19708,"CIBICVAL","CIBIC Score",1,4,"Y","",">140",168,24,141,null,"DAYS",6002],
[614,"CDISCPILOT01","716","716","01-716-1094",19346,19382,"Xanomeline Low Dose",54,82,">80",3,"WHITE",1,"M","Y","Y","N","Week 8",8,"WEEK 6",7,39,19384,"CIBICVAL","CIBIC Score",1,2,"Y","","2-84",56,17,2,84,"DAYS",6001],
[615,"CDISCPILOT01","716","716","01-716-1094",19346,19382,"Xanomeline Low Dose",54,82,">80",3,"WHITE",1,"M","Y","Y","N","Week 16",16,"WEEK 6",7,39,19384,"CIBICVAL","CIBIC Score",1,2,"Y","LOCF","85-140",112,73,85,140,"DAYS",6001],
[616,"CDISCPILOT01","716","716","01-716-1094",19346,19382,"Xanomeline Low Dose",54,82,">80",3,"WHITE",1,"M","Y","Y","N","Week 24",24,"RETRIEVAL",201,186,19531,"CIBICVAL","CIBIC Score",1,4,"Y","",">140",168,18,141,null,"DAYS",6002],
[617,"CDISCPILOT01","716","716","01-716-1103",19802,19986,"Xanomeline Low Dose",54,79,"65-80",2,"WHITE",1,"M","Y","Y","Y","Week 8",8,"WEEK 8",8,64,19865,"CIBICVAL","CIBIC Score",1,3,"Y","","2-84",56,8,2,84,"DAYS",6001],
[618,"CDISCPILOT01","716","716","01-716-1103",19802,19986,"Xanomeline Low Dose",54,79,"65-80",2,"WHITE",1,"M","Y","Y","Y","Week 16",16,"WEEK 16",10,126,19927,"CIBICVAL","CIBIC Score",1,3,"Y","","85-140",112,14,85,140,"DAYS",6002],
[619,"CDISCPILOT01","716","716","01-716-1103",19802,19986,"Xanomeline Low Dose",54,79,"65-80",2,"WHITE",1,"M","Y","Y","Y","Week 24",24,"WEEK 24",12,164,19965,"CIBICVAL","CIBIC Score",1,3,"Y","",">140",168,4,141,null,"DAYS",6003],
[620,"CDISCPILOT01","716","716","01-716-1108",19401,19580,"Placebo",0,86,">80",3,"WHITE",1,"F","Y","Y","Y","Week 8",8,"WEEK 8",8,60,19460,"CIBICVAL","CIBIC Score",1,4,"Y","","2-84",56,4,2,84,"DAYS",6001],
[621,"CDISCPILOT01","716","716","01-716-1108",19401,19580,"Placebo",0,86,">80",3,"WHITE",1,"F","Y","Y","Y","Week 16",16,"WEEK 16",10,116,19516,"CIBICVAL","CIBIC Score",1,4,"Y","","85-140",112,4,85,140,"DAYS",6002],
[622,"CDISCPILOT01","716","716","01-716-1108",19401,19580,"Placebo",0,86,">80",3,"WHITE",1,"F","Y","Y","Y","Week 24",24,"WEEK 24",12,172,19572,"CIBICVAL","CIBIC Score",1,4,"Y","",">140",168,4,141,null,"DAYS",6003],
[623,"CDISCPILOT01","716","716","01-716-1151",19390,19489,"Xanomeline Low Dose",54,83,">80",3,"WHITE",1,"F","Y","Y","N","Week 8",8,"WEEK 8",8,61,19450,"CIBICVAL","CIBIC Score",1,4,"Y","","2-84",56,5,2,84,"DAYS",6001],
[624,"CDISCPILOT01","716","716","01-716-1151",19390,19489,"Xanomeline Low Dose",54,83,">80",3,"WHITE",1,"F","Y","Y","N","Week 16",16,"WEEK 16",10,127,19516,"CIBICVAL","CIBIC Score",1,3,"Y","","85-140",112,15,85,140,"DAYS",6002],
[625,"CDISCPILOT01","716","716","01-716-1151",19390,19489,"Xanomeline Low Dose",54,83,">80",3,"WHITE",1,"F","Y","Y","N","Week 24",24,"RETRIEVAL",201,194,19583,"CIBICVAL","CIBIC Score",1,5,"Y","",">140",168,26,141,null,"DAYS",6003],
[626,"CDISCPILOT01","716","716","01-716-1157",19633,19817,"Xanomeline Low Dose",54,85,">80",3,"WHITE",1,"M","Y","Y","Y","Week 8",8,"WEEK 8",8,56,19688,"CIBICVAL","CIBIC Score",1,3,"Y","","2-84",56,0,2,84,"DAYS",6001],
[627,"CDISCPILOT01","716","716","01-716-1157",19633,19817,"Xanomeline Low Dose",54,85,">80",3,"WHITE",1,"M","Y","Y","Y","Week 16",16,"WEEK 16",10,111,19743,"CIBICVAL","CIBIC Score",1,5,"Y","","85-140",112,1,85,140,"DAYS",6002],
[628,"CDISCPILOT01","716","716","01-716-1157",19633,19817,"Xanomeline Low Dose",54,85,">80",3,"WHITE",1,"M","Y","Y","Y","Week 24",24,"WEEK 24",12,176,19808,"CIBICVAL","CIBIC Score",1,5,"Y","",">140",168,8,141,null,"DAYS",6003],
[629,"CDISCPILOT01","716","716","01-716-1160",19453,19642,"Placebo",0,83,">80",3,"WHITE",1,"F","Y","Y","Y","Week 8",8,"WEEK 8",8,69,19521,"CIBICVAL","CIBIC Score",1,4,"Y","","2-84",56,13,2,84,"DAYS",6001],
[630,"CDISCPILOT01","716","716","01-716-1160",19453,19642,"Placebo",0,83,">80",3,"WHITE",1,"F","Y","Y","Y","Week 16",16,"WEEK 16",10,114,19566,"CIBICVAL","CIBIC Score",1,4,"Y","","85-140",112,2,85,140,"DAYS",6002],
[631,"CDISCPILOT01","716","716","01-716-1160",19453,19642,"Placebo",0,83,">80",3,"WHITE",1,"F","Y","Y","Y","Week 24",24,"WEEK 24",12,176,19628,"CIBICVAL","CIBIC Score",1,4,"Y","",">140",168,8,141,null,"DAYS",6003],
[632,"CDISCPILOT01","716","716","01-716-1167",19274,19460,"Xanomeline Low Dose",54,68,"65-80",2,"WHITE",1,"M","Y","Y","Y","Week 8",8,"WEEK 8",8,57,19330,"CIBICVAL","CIBIC Score",1,3,"Y","","2-84",56,1,2,84,"DAYS",6001],
[633,"CDISCPILOT01","716","716","01-716-1167",19274,19460,"Xanomeline Low Dose",54,68,"65-80",2,"WHITE",1,"M","Y","Y","Y","Week 16",16,"WEEK 16",10,113,19386,"CIBICVAL","CIBIC Score",1,5,"Y","","85-140",112,1,85,140,"DAYS",6002],
[634,"CDISCPILOT01","716","716","01-716-1167",19274,19460,"Xanomeline Low Dose",54,68,"65-80",2,"WHITE",1,"M","Y","Y","Y","Week 24",24,"WEEK 24",12,168,19441,"CIBICVAL","CIBIC Score",1,3,"Y","",">140",168,0,141,null,"DAYS",6003],
[635,"CDISCPILOT01","716","716","01-716-1177",19968,20152,"Placebo",0,72,"65-80",2,"WHITE",1,"M","Y","Y","Y","Week 8",8,"WEEK 8",8,59,20026,"CIBICVAL","CIBIC Score",1,4,"Y","","2-84",56,3,2,84,"DAYS",6001],
[636,"CDISCPILOT01","716","716","01-716-1177",19968,20152,"Placebo",0,72,"65-80",2,"WHITE",1,"M","Y","Y","Y","Week 16",16,"WEEK 16",10,122,20089,"CIBICVAL","CIBIC Score",1,5,"Y","","85-140",112,10,85,140,"DAYS",6002],
[637,"CDISCPILOT01","716","716","01-716-1177",19968,20152,"Placebo",0,72,"65-80",2,"WHITE",1,"M","Y","Y","Y","Week 24",24,"WEEK 24",12,169,20136,"CIBICVAL","CIBIC Score",1,4,"Y","",">140",168,1,141,null,"DAYS",6003],
[638,"CDISCPILOT01","716","716","01-716-1189",19275,19416,"Xanomeline High Dose",81,81,">80",3,"WHITE",1,"M","Y","Y","N","Week 8",8,"WEEK 8",8,61,19335,"CIBICVAL","CIBIC Score",1,6,"Y","","2-84",56,5,2,84,"DAYS",6001],
[639,"CDISCPILOT01","716","716","01-716-1189",19275,19416,"Xanomeline High Dose",81,81,">80",3,"WHITE",1,"M","Y","Y","N","Week 16",16,"WEEK 16",10,118,19392,"CIBICVAL","CIBIC Score",1,5,"Y","","85-140",112,6,85,140,"DAYS",6002],
[640,"CDISCPILOT01","716","716","01-716-1189",19275,19416,"Xanomeline High Dose",81,81,">80",3,"WHITE",1,"M","Y","Y","N","Week 24",24,"WEEK 20",11,146,19420,"CIBICVAL","CIBIC Score",1,5,"","",">140",168,22,141,null,"DAYS",6003],
[641,"CDISCPILOT01","716","716","01-716-1189",19275,19416,"Xanomeline High Dose",81,81,">80",3,"WHITE",1,"M","Y","Y","N","Week 24",24,"RETRIEVAL",201,182,19456,"CIBICVAL","CIBIC Score",1,6,"Y","",">140",168,14,141,null,"DAYS",6004],
[642,"CDISCPILOT01","716","716","01-716-1229",19409,19448,"Xanomeline High Dose",81,73,"65-80",2,"WHITE",1,"F","Y","Y","N","Week 8",8,"WEEK 6",7,42,19450,"CIBICVAL","CIBIC Score",1,4,"Y","","2-84",56,14,2,84,"DAYS",6001],
[643,"CDISCPILOT01","716","716","01-716-1229",19409,19448,"Xanomeline High Dose",81,73,"65-80",2,"WHITE",1,"F","Y","Y","N","Week 16",16,"WEEK 6",7,42,19450,"CIBICVAL","CIBIC Score",1,4,"Y","LOCF","85-140",112,70,85,140,"DAYS",6001],
[644,"CDISCPILOT01","716","716","01-716-1229",19409,19448,"Xanomeline High Dose",81,73,"65-80",2,"WHITE",1,"F","Y","Y","N","Week 24",24,"WEEK 6",7,42,19450,"CIBICVAL","CIBIC Score",1,4,"Y","LOCF",">140",168,126,141,null,"DAYS",6001],
[645,"CDISCPILOT01","716","716","01-716-1298",19456,19537,"Xanomeline Low Dose",54,76,"65-80",2,"WHITE",1,"F","Y","Y","N","Week 8",8,"WEEK 8",8,61,19516,"CIBICVAL","CIBIC Score",1,4,"Y","","2-84",56,5,2,84,"DAYS",6001],
[646,"CDISCPILOT01","716","716","01-716-1298",19456,19537,"Xanomeline Low Dose",54,76,"65-80",2,"WHITE",1,"F","Y","Y","N","Week 16",16,"WEEK 12",9,90,19545,"CIBICVAL","CIBIC Score",1,4,"Y","","85-140",112,22,85,140,"DAYS",6002],
[647,"CDISCPILOT01","716","716","01-716-1298",19456,19537,"Xanomeline Low Dose",54,76,"65-80",2,"WHITE",1,"F","Y","Y","N","Week 24",24,"RETRIEVAL",201,183,19638,"CIBICVAL","CIBIC Score",1,5,"Y","",">140",168,15,141,null,"DAYS",6003],
[648,"CDISCPILOT01","716","716","01-716-1308",19598,19638,"Placebo",0,76,"65-80",2,"WHITE",1,"F","Y","Y","N","Week 8",8,"WEEK 6",7,41,19638,"CIBICVAL","CIBIC Score",1,6,"Y","","2-84",56,15,2,84,"DAYS",6001],
[649,"CDISCPILOT01","716","716","01-716-1308",19598,19638,"Placebo",0,76,"65-80",2,"WHITE",1,"F","Y","Y","N","Week 16",16,"WEEK 6",7,41,19638,"CIBICVAL","CIBIC Score",1,6,"Y","LOCF","85-140",112,71,85,140,"DAYS",6001],
[650,"CDISCPILOT01","716","716","01-716-1308",19598,19638,"Placebo",0,76,"65-80",2,"WHITE",1,"F","Y","Y","N","Week 24",24,"WEEK 6",7,41,19638,"CIBICVAL","CIBIC Score",1,6,"Y","LOCF",">140",168,127,141,null,"DAYS",6001],
[651,"CDISCPILOT01","716","716","01-716-1311",19857,19987,"Xanomeline Low Dose",54,78,"65-80",2,"WHITE",1,"M","Y","Y","N","Week 8",8,"WEEK 8",8,56,19912,"CIBICVAL","CIBIC Score",1,4,"Y","","2-84",56,0,2,84,"DAYS",6001],
[652,"CDISCPILOT01","716","716","01-716-1311",19857,19987,"Xanomeline Low Dose",54,78,"65-80",2,"WHITE",1,"M","Y","Y","N","Week 16",16,"WEEK 16",10,120,19976,"CIBICVAL","CIBIC Score",1,6,"Y","","85-140",112,8,85,140,"DAYS",6002],
[653,"CDISCPILOT01","716","716","01-716-1311",19857,19987,"Xanomeline Low Dose",54,78,"65-80",2,"WHITE",1,"M","Y","Y","N","Week 24",24,"RETRIEVAL",201,186,20042,"CIBICVAL","CIBIC Score",1,5,"Y","",">140",168,18,141,null,"DAYS",6003],
[654,"CDISCPILOT01","716","716","01-716-1364",19543,19732,"Xanomeline High Dose",81,84,">80",3,"WHITE",1,"F","Y","Y","Y","Week 8",8,"WEEK 8",8,61,19603,"CIBICVAL","CIBIC Score",1,4,"Y","","2-84",56,5,2,84,"DAYS",6001],
[655,"CDISCPILOT01","716","716","01-716-1364",19543,19732,"Xanomeline High Dose",81,84,">80",3,"WHITE",1,"F","Y","Y","Y","Week 16",16,"WEEK 16",10,127,19669,"CIBICVAL","CIBIC Score",1,5,"Y","","85-140",112,15,85,140,"DAYS",6002],
[656,"CDISCPILOT01","716","716","01-716-1364",19543,19732,"Xanomeline High Dose",81,84,">80",3,"WHITE",1,"F","Y","Y","Y","Week 24",24,"WEEK 24",12,173,19715,"CIBICVAL","CIBIC Score",1,5,"Y","",">140",168,5,141,null,"DAYS",6003],
[657,"CDISCPILOT01","716","716","01-716-1373",19341,19416,"Xanomeline High Dose",81,74,"65-80",2,"WHITE",1,"M","Y","Y","N","Week 8",8,"WEEK 8",8,58,19398,"CIBICVAL","CIBIC Score",1,3,"Y","","2-84",56,2,2,84,"DAYS",6001],
[658,"CDISCPILOT01","716","716","01-716-1373",19341,19416,"Xanomeline High Dose",81,74,"65-80",2,"WHITE",1,"M","Y","Y","N","Week 8",8,"WEEK 12",9,77,19417,"CIBICVAL","CIBIC Score",1,3,"","","2-84",56,21,2,84,"DAYS",6002],
[659,"CDISCPILOT01","716","716","01-716-1373",19341,19416,"Xanomeline High Dose",81,74,"65-80",2,"WHITE",1,"M","Y","Y","N","Week 16",16,"WEEK 12",9,77,19417,"CIBICVAL","CIBIC Score",1,3,"Y","LOCF","85-140",112,35,85,140,"DAYS",6002],
[660,"CDISCPILOT01","716","716","01-716-1373",19341,19416,"Xanomeline High Dose",81,74,"65-80",2,"WHITE",1,"M","Y","Y","N","Week 24",24,"WEEK 12",9,77,19417,"CIBICVAL","CIBIC Score",1,3,"Y","LOCF",">140",168,91,141,null,"DAYS",6002],
[661,"CDISCPILOT01","716","716","01-716-1418",19483,19682,"Xanomeline High Dose",81,80,"65-80",2,"WHITE",1,"F","Y","Y","Y","Week 8",8,"WEEK 8",8,68,19550,"CIBICVAL","CIBIC Score",1,4,"Y","","2-84",56,12,2,84,"DAYS",6001],
[662,"CDISCPILOT01","716","716","01-716-1418",19483,19682,"Xanomeline High Dose",81,80,"65-80",2,"WHITE",1,"F","Y","Y","Y","Week 16",16,"WEEK 16",10,124,19606,"CIBICVAL","CIBIC Score",1,3,"Y","","85-140",112,12,85,140,"DAYS",6002],
[663,"CDISCPILOT01","716","716","01-716-1418",19483,19682,"Xanomeline High Dose",81,80,"65-80",2,"WHITE",1,"F","Y","Y","Y","Week 24",24,"WEEK 24",12,186,19668,"CIBICVAL","CIBIC Score",1,5,"Y","",">140",168,18,141,null,"DAYS",6003],
[664,"CDISCPILOT01","716","716","01-716-1441",19745,19926,"Placebo",0,85,">80",3,"WHITE",1,"M","Y","Y","Y","Week 8",8,"WEEK 8",8,57,19801,"CIBICVAL","CIBIC Score",1,4,"Y","","2-84",56,1,2,84,"DAYS",6001],
[665,"CDISCPILOT01","716","716","01-716-1441",19745,19926,"Placebo",0,85,">80",3,"WHITE",1,"M","Y","Y","Y","Week 16",16,"WEEK 16",10,118,19862,"CIBICVAL","CIBIC Score",1,3,"Y","","85-140",112,6,85,140,"DAYS",6002],
[666,"CDISCPILOT01","716","716","01-716-1441",19745,19926,"Placebo",0,85,">80",3,"WHITE",1,"M","Y","Y","Y","Week 24",24,"WEEK 24",12,168,19912,"CIBICVAL","CIBIC Score",1,5,"Y","",">140",168,0,141,null,"DAYS",6003],
[667,"CDISCPILOT01","716","716","01-716-1447",19708,19891,"Xanomeline High Dose",81,72,"65-80",2,"WHITE",1,"F","Y","Y","Y","Week 8",8,"WEEK 8",8,57,19764,"CIBICVAL","CIBIC Score",1,2,"Y","","2-84",56,1,2,84,"DAYS",6001],
[668,"CDISCPILOT01","716","716","01-716-1447",19708,19891,"Xanomeline High Dose",81,72,"65-80",2,"WHITE",1,"F","Y","Y","Y","Week 16",16,"WEEK 16",10,118,19825,"CIBICVAL","CIBIC Score",1,2,"Y","","85-140",112,6,85,140,"DAYS",6002],
[669,"CDISCPILOT01","716","716","01-716-1447",19708,19891,"Xanomeline High Dose",81,72,"65-80",2,"WHITE",1,"F","Y","Y","Y","Week 24",24,"WEEK 24",12,174,19881,"CIBICVAL","CIBIC Score",1,3,"Y","",">140",168,6,141,null,"DAYS",6003],
[670,"CDISCPILOT01","717","900","01-717-1004",19737,19920,"Xanomeline Low Dose",54,80,"65-80",2,"WHITE",1,"F","Y","Y","Y","Week 8",8,"WEEK 8",8,57,19793,"CIBICVAL","CIBIC Score",1,3,"Y","","2-84",56,1,2,84,"DAYS",6001],
[671,"CDISCPILOT01","717","900","01-717-1004",19737,19920,"Xanomeline Low Dose",54,80,"65-80",2,"WHITE",1,"F","Y","Y","Y","Week 16",16,"WEEK 16",10,113,19849,"CIBICVAL","CIBIC Score",1,4,"Y","","85-140",112,1,85,140,"DAYS",6002],
[672,"CDISCPILOT01","717","900","01-717-1004",19737,19920,"Xanomeline Low Dose",54,80,"65-80",2,"WHITE",1,"F","Y","Y","Y","Week 24",24,"WEEK 24",12,169,19905,"CIBICVAL","CIBIC Score",1,4,"Y","",">140",168,1,141,null,"DAYS",6003],
[673,"CDISCPILOT01","717","900","01-717-1109",19750,19932,"Xanomeline High Dose",81,84,">80",3,"WHITE",1,"M","Y","Y","Y","Week 8",8,"WEEK 8",8,57,19806,"CIBICVAL","CIBIC Score",1,5,"Y","","2-84",56,1,2,84,"DAYS",6001],
[674,"CDISCPILOT01","717","900","01-717-1109",19750,19932,"Xanomeline High Dose",81,84,">80",3,"WHITE",1,"M","Y","Y","Y","Week 16",16,"WEEK 16",10,113,19862,"CIBICVAL","CIBIC Score",1,5,"Y","","85-140",112,1,85,140,"DAYS",6002],
[675,"CDISCPILOT01","717","900","01-717-1109",19750,19932,"Xanomeline High Dose",81,84,">80",3,"WHITE",1,"M","Y","Y","Y","Week 24",24,"WEEK 24",12,173,19922,"CIBICVAL","CIBIC Score",1,6,"Y","",">140",168,5,141,null,"DAYS",6003],
[676,"CDISCPILOT01","717","900","01-717-1174",19380,19563,"Xanomeline High Dose",81,73,"65-80",2,"WHITE",1,"M","Y","Y","Y","Week 8",8,"WEEK 8",8,57,19436,"CIBICVAL","CIBIC Score",1,4,"Y","","2-84",56,1,2,84,"DAYS",6001],
[677,"CDISCPILOT01","717","900","01-717-1174",19380,19563,"Xanomeline High Dose",81,73,"65-80",2,"WHITE",1,"M","Y","Y","Y","Week 16",16,"WEEK 16",10,117,19496,"CIBICVAL","CIBIC Score",1,5,"Y","","85-140",112,5,85,140,"DAYS",6002],
[678,"CDISCPILOT01","717","900","01-717-1174",19380,19563,"Xanomeline High Dose",81,73,"65-80",2,"WHITE",1,"M","Y","Y","Y","Week 24",24,"WEEK 24",12,167,19546,"CIBICVAL","CIBIC Score",1,5,"Y","",">140",168,1,141,null,"DAYS",6003],
[679,"CDISCPILOT01","717","900","01-717-1201",19711,19775,"Placebo",0,85,">80",3,"WHITE",1,"F","Y","Y","N","Week 8",8,"WEEK 8",8,65,19775,"CIBICVAL","CIBIC Score",1,5,"Y","","2-84",56,9,2,84,"DAYS",6001],
[680,"CDISCPILOT01","717","900","01-717-1201",19711,19775,"Placebo",0,85,">80",3,"WHITE",1,"F","Y","Y","N","Week 16",16,"WEEK 8",8,65,19775,"CIBICVAL","CIBIC Score",1,5,"Y","LOCF","85-140",112,47,85,140,"DAYS",6001],
[681,"CDISCPILOT01","717","900","01-717-1201",19711,19775,"Placebo",0,85,">80",3,"WHITE",1,"F","Y","Y","N","Week 24",24,"WEEK 8",8,65,19775,"CIBICVAL","CIBIC Score",1,5,"Y","LOCF",">140",168,103,141,null,"DAYS",6001],
[682,"CDISCPILOT01","717","900","01-717-1344",19734,19796,"Placebo",0,64,"<65",1,"WHITE",1,"F","Y","Y","N","Week 8",8,"WEEK 8",8,63,19796,"CIBICVAL","CIBIC Score",1,4,"Y","","2-84",56,7,2,84,"DAYS",6001],
[683,"CDISCPILOT01","717","900","01-717-1344",19734,19796,"Placebo",0,64,"<65",1,"WHITE",1,"F","Y","Y","N","Week 16",16,"WEEK 8",8,63,19796,"CIBICVAL","CIBIC Score",1,4,"Y","LOCF","85-140",112,49,85,140,"DAYS",6001],
[684,"CDISCPILOT01","717","900","01-717-1344",19734,19796,"Placebo",0,64,"<65",1,"WHITE",1,"F","Y","Y","N","Week 24",24,"WEEK 8",8,63,19796,"CIBICVAL","CIBIC Score",1,4,"Y","LOCF",">140",168,105,141,null,"DAYS",6001],
[685,"CDISCPILOT01","717","900","01-717-1357",19479,19645,"Xanomeline High Dose",81,77,"65-80",2,"WHITE",1,"M","Y","Y","Y","Week 8",8,"WEEK 8",8,50,19528,"CIBICVAL","CIBIC Score",1,5,"Y","","2-84",56,6,2,84,"DAYS",6001],
[686,"CDISCPILOT01","717","900","01-717-1357",19479,19645,"Xanomeline High Dose",81,77,"65-80",2,"WHITE",1,"M","Y","Y","Y","Week 16",16,"WEEK 16",10,113,19591,"CIBICVAL","CIBIC Score",1,4,"Y","","85-140",112,1,85,140,"DAYS",6002],
[687,"CDISCPILOT01","717","900","01-717-1357",19479,19645,"Xanomeline High Dose",81,77,"65-80",2,"WHITE",1,"M","Y","Y","Y","Week 24",24,"WEEK 24",12,173,19651,"CIBICVAL","CIBIC Score",1,5,"Y","",">140",168,5,141,null,"DAYS",6003],
[688,"CDISCPILOT01","717","900","01-717-1446",19602,19785,"Xanomeline Low Dose",54,75,"65-80",2,"WHITE",1,"F","Y","Y","Y","Week 8",8,"WEEK 8",8,60,19661,"CIBICVAL","CIBIC Score",1,4,"Y","","2-84",56,4,2,84,"DAYS",6001],
[689,"CDISCPILOT01","717","900","01-717-1446",19602,19785,"Xanomeline Low Dose",54,75,"65-80",2,"WHITE",1,"F","Y","Y","Y","Week 16",16,"WEEK 16",10,120,19721,"CIBICVAL","CIBIC Score",1,4,"Y","","85-140",112,8,85,140,"DAYS",6002],
[690,"CDISCPILOT01","717","900","01-717-1446",19602,19785,"Xanomeline Low Dose",54,75,"65-80",2,"WHITE",1,"F","Y","Y","Y","Week 24",24,"WEEK 24",12,169,19770,"CIBICVAL","CIBIC Score",1,4,"Y","",">140",168,1,141,null,"DAYS",6003],
[691,"CDISCPILOT01","718","718","01-718-1066",19546,19555,"Xanomeline Low Dose",54,79,"65-80",2,"WHITE",1,"F","Y","Y","N","Week 8",8,"WEEK 2",4,24,19569,"CIBICVAL","CIBIC Score",1,5,"Y","","2-84",56,32,2,84,"DAYS",6001],
[692,"CDISCPILOT01","718","718","01-718-1066",19546,19555,"Xanomeline Low Dose",54,79,"65-80",2,"WHITE",1,"F","Y","Y","N","Week 16",16,"WEEK 2",4,24,19569,"CIBICVAL","CIBIC Score",1,5,"Y","LOCF","85-140",112,88,85,140,"DAYS",6001],
[693,"CDISCPILOT01","718","718","01-718-1066",19546,19555,"Xanomeline Low Dose",54,79,"65-80",2,"WHITE",1,"F","Y","Y","N","Week 24",24,"RETRIEVAL",201,191,19736,"CIBICVAL","CIBIC Score",1,5,"Y","",">140",168,23,141,null,"DAYS",6002],
[694,"CDISCPILOT01","718","718","01-718-1079",19255,19297,"Xanomeline Low Dose",54,67,"65-80",2,"WHITE",1,"F","Y","Y","N","Week 8",8,"WEEK 6",7,49,19303,"CIBICVAL","CIBIC Score",1,4,"Y","","2-84",56,7,2,84,"DAYS",6001],
[695,"CDISCPILOT01","718","718","01-718-1079",19255,19297,"Xanomeline Low Dose",54,67,"65-80",2,"WHITE",1,"F","Y","Y","N","Week 16",16,"WEEK 6",7,49,19303,"CIBICVAL","CIBIC Score",1,4,"Y","LOCF","85-140",112,63,85,140,"DAYS",6001],
[696,"CDISCPILOT01","718","718","01-718-1079",19255,19297,"Xanomeline Low Dose",54,67,"65-80",2,"WHITE",1,"F","Y","Y","N","Week 24",24,"RETRIEVAL",201,168,19422,"CIBICVAL","CIBIC Score",1,3,"Y","",">140",168,0,141,null,"DAYS",6002],
[697,"CDISCPILOT01","718","718","01-718-1101",19406,19570,"Xanomeline High Dose",81,82,">80",3,"BLACK OR AFRICAN AMERICAN",2,"M","Y","Y","Y","Week 8",8,"WEEK 8",8,56,19461,"CIBICVAL","CIBIC Score",1,4,"Y","","2-84",56,0,2,84,"DAYS",6001],
[698,"CDISCPILOT01","718","718","01-718-1101",19406,19570,"Xanomeline High Dose",81,82,">80",3,"BLACK OR AFRICAN AMERICAN",2,"M","Y","Y","Y","Week 16",16,"WEEK 16",10,118,19523,"CIBICVAL","CIBIC Score",1,5,"Y","","85-140",112,6,85,140,"DAYS",6002],
[699,"CDISCPILOT01","718","718","01-718-1101",19406,19570,"Xanomeline High Dose",81,82,">80",3,"BLACK OR AFRICAN AMERICAN",2,"M","Y","Y","Y","Week 24",24,"WEEK 24",12,167,19572,"CIBICVAL","CIBIC Score",1,4,"Y","",">140",168,1,141,null,"DAYS",6003],
[700,"CDISCPILOT01","718","718","01-718-1139",19497,19679,"Placebo",0,77,"65-80",2,"WHITE",1,"M","Y","Y","Y","Week 8",8,"WEEK 8",8,57,19553,"CIBICVAL","CIBIC Score",1,4,"Y","","2-84",56,1,2,84,"DAYS",6001],
[701,"CDISCPILOT01","718","718","01-718-1139",19497,19679,"Placebo",0,77,"65-80",2,"WHITE",1,"M","Y","Y","Y","Week 16",16,"WEEK 16",10,113,19609,"CIBICVAL","CIBIC Score",1,4,"Y","","85-140",112,1,85,140,"DAYS",6002],
[702,"CDISCPILOT01","718","718","01-718-1139",19497,19679,"Placebo",0,77,"65-80",2,"WHITE",1,"M","Y","Y","Y","Week 24",24,"WEEK 24",12,169,19665,"CIBICVAL","CIBIC Score",1,4,"Y","",">140",168,1,141,null,"DAYS",6003],
[703,"CDISCPILOT01","718","718","01-718-1150",19377,19568,"Placebo",0,73,"65-80",2,"WHITE",1,"F","Y","Y","Y","Week 8",8,"WEEK 8",8,58,19434,"CIBICVAL","CIBIC Score",1,4,"Y","","2-84",56,2,2,84,"DAYS",6001],
[704,"CDISCPILOT01","718","718","01-718-1150",19377,19568,"Placebo",0,73,"65-80",2,"WHITE",1,"F","Y","Y","Y","Week 16",16,"WEEK 16",10,112,19488,"CIBICVAL","CIBIC Score",1,4,"Y","","85-140",112,0,85,140,"DAYS",6002],
[705,"CDISCPILOT01","718","718","01-718-1150",19377,19568,"Placebo",0,73,"65-80",2,"WHITE",1,"F","Y","Y","Y","Week 24",24,"WEEK 24",12,170,19546,"CIBICVAL","CIBIC Score",1,4,"Y","",">140",168,2,141,null,"DAYS",6003],
[706,"CDISCPILOT01","718","718","01-718-1170",19617,19643,"Xanomeline Low Dose",54,80,"65-80",2,"WHITE",1,"F","Y","Y","N","Week 8",8,"WEEK 4",5,49,19665,"CIBICVAL","CIBIC Score",1,5,"Y","","2-84",56,7,2,84,"DAYS",6001],
[707,"CDISCPILOT01","718","718","01-718-1170",19617,19643,"Xanomeline Low Dose",54,80,"65-80",2,"WHITE",1,"F","Y","Y","N","Week 16",16,"WEEK 4",5,49,19665,"CIBICVAL","CIBIC Score",1,5,"Y","LOCF","85-140",112,63,85,140,"DAYS",6001],
[708,"CDISCPILOT01","718","718","01-718-1170",19617,19643,"Xanomeline Low Dose",54,80,"65-80",2,"WHITE",1,"F","Y","Y","N","Week 24",24,"RETRIEVAL",201,181,19797,"CIBICVAL","CIBIC Score",1,4,"Y","",">140",168,13,141,null,"DAYS",6002],
[709,"CDISCPILOT01","718","718","01-718-1172",19622,19691,"Placebo",0,74,"65-80",2,"WHITE",1,"M","Y","Y","N","Week 8",8,"WEEK 8",8,57,19678,"CIBICVAL","CIBIC Score",1,4,"Y","","2-84",56,1,2,84,"DAYS",6001],
[710,"CDISCPILOT01","718","718","01-718-1172",19622,19691,"Placebo",0,74,"65-80",2,"WHITE",1,"M","Y","Y","N","Week 8",8,"WEEK 12",9,70,19691,"CIBICVAL","CIBIC Score",1,4,"","","2-84",56,14,2,84,"DAYS",6002],
[711,"CDISCPILOT01","718","718","01-718-1172",19622,19691,"Placebo",0,74,"65-80",2,"WHITE",1,"M","Y","Y","N","Week 16",16,"WEEK 12",9,70,19691,"CIBICVAL","CIBIC Score",1,4,"Y","LOCF","85-140",112,42,85,140,"DAYS",6002],
[712,"CDISCPILOT01","718","718","01-718-1172",19622,19691,"Placebo",0,74,"65-80",2,"WHITE",1,"M","Y","Y","N","Week 24",24,"RETRIEVAL",201,182,19803,"CIBICVAL","CIBIC Score",1,4,"Y","",">140",168,14,141,null,"DAYS",6003],
[713,"CDISCPILOT01","718","718","01-718-1250",19622,19754,"Xanomeline Low Dose",54,82,">80",3,"WHITE",1,"F","Y","Y","N","Week 8",8,"WEEK 8",8,57,19678,"CIBICVAL","CIBIC Score",1,4,"Y","","2-84",56,1,2,84,"DAYS",6001],
[714,"CDISCPILOT01","718","718","01-718-1250",19622,19754,"Xanomeline Low Dose",54,82,">80",3,"WHITE",1,"F","Y","Y","N","Week 16",16,"WEEK 16",10,113,19734,"CIBICVAL","CIBIC Score",1,4,"Y","","85-140",112,1,85,140,"DAYS",6002],
[715,"CDISCPILOT01","718","718","01-718-1250",19622,19754,"Xanomeline Low Dose",54,82,">80",3,"WHITE",1,"F","Y","Y","N","Week 24",24,"WEEK 20",11,141,19762,"CIBICVAL","CIBIC Score",1,4,"","",">140",168,27,141,null,"DAYS",6003],
[716,"CDISCPILOT01","718","718","01-718-1250",19622,19754,"Xanomeline Low Dose",54,82,">80",3,"WHITE",1,"F","Y","Y","N","Week 24",24,"RETRIEVAL",201,169,19790,"CIBICVAL","CIBIC Score",1,4,"Y","",">140",168,1,141,null,"DAYS",6004],
[717,"CDISCPILOT01","718","718","01-718-1254",19549,19732,"Xanomeline Low Dose",54,78,"65-80",2,"WHITE",1,"M","Y","Y","Y","Week 8",8,"WEEK 8",8,58,19606,"CIBICVAL","CIBIC Score",1,4,"Y","","2-84",56,2,2,84,"DAYS",6001],
[718,"CDISCPILOT01","718","718","01-718-1254",19549,19732,"Xanomeline Low Dose",54,78,"65-80",2,"WHITE",1,"M","Y","Y","Y","Week 16",16,"WEEK 16",10,114,19662,"CIBICVAL","CIBIC Score",1,4,"Y","","85-140",112,2,85,140,"DAYS",6002],
[719,"CDISCPILOT01","718","718","01-718-1254",19549,19732,"Xanomeline Low Dose",54,78,"65-80",2,"WHITE",1,"M","Y","Y","Y","Week 24",24,"WEEK 24",12,170,19718,"CIBICVAL","CIBIC Score",1,4,"Y","",">140",168,2,141,null,"DAYS",6003],
[720,"CDISCPILOT01","718","718","01-718-1328",19390,19466,"Xanomeline High Dose",81,86,">80",3,"WHITE",1,"M","Y","Y","N","Week 8",8,"WEEK 8",8,63,19452,"CIBICVAL","CIBIC Score",1,5,"Y","","2-84",56,7,2,84,"DAYS",6001],
[721,"CDISCPILOT01","718","718","01-718-1328",19390,19466,"Xanomeline High Dose",81,86,">80",3,"WHITE",1,"M","Y","Y","N","Week 16",16,"WEEK 12",9,90,19479,"CIBICVAL","CIBIC Score",1,5,"Y","","85-140",112,22,85,140,"DAYS",6002],
[722,"CDISCPILOT01","718","718","01-718-1328",19390,19466,"Xanomeline High Dose",81,86,">80",3,"WHITE",1,"M","Y","Y","N","Week 24",24,"RETRIEVAL",201,174,19563,"CIBICVAL","CIBIC Score",1,5,"Y","",">140",168,6,141,null,"DAYS",6003],
[723,"CDISCPILOT01","718","718","01-718-1355",19417,19599,"Placebo",0,79,"65-80",2,"WHITE",1,"M","Y","Y","Y","Week 8",8,"WEEK 8",8,57,19473,"CIBICVAL","CIBIC Score",1,5,"Y","","2-84",56,1,2,84,"DAYS",6001],
[724,"CDISCPILOT01","718","718","01-718-1355",19417,19599,"Placebo",0,79,"65-80",2,"WHITE",1,"M","Y","Y","Y","Week 16",16,"WEEK 16",10,113,19529,"CIBICVAL","CIBIC Score",1,4,"Y","","85-140",112,1,85,140,"DAYS",6002],
[725,"CDISCPILOT01","718","718","01-718-1355",19417,19599,"Placebo",0,79,"65-80",2,"WHITE",1,"M","Y","Y","Y","Week 24",24,"WEEK 24",12,169,19585,"CIBICVAL","CIBIC Score",1,4,"Y","",">140",168,1,141,null,"DAYS",6003],
[726,"CDISCPILOT01","718","718","01-718-1371",19474,19571,"Xanomeline High Dose",81,69,"65-80",2,"WHITE",1,"F","Y","Y","N","Week 16",16,"WEEK 12",9,105,19578,"CIBICVAL","CIBIC Score",1,4,"Y","","85-140",112,7,85,140,"DAYS",6001],
[727,"CDISCPILOT01","718","718","01-718-1371",19474,19571,"Xanomeline High Dose",81,69,"65-80",2,"WHITE",1,"F","Y","Y","N","Week 24",24,"WEEK 12",9,105,19578,"CIBICVAL","CIBIC Score",1,4,"Y","LOCF",">140",168,63,141,null,"DAYS",6001],
[728,"CDISCPILOT01","718","718","01-718-1427",19344,19400,"Xanomeline High Dose",81,74,"65-80",2,"BLACK OR AFRICAN AMERICAN",2,"F","Y","Y","N","Week 8",8,"WEEK 8",8,64,19407,"CIBICVAL","CIBIC Score",1,4,"Y","","2-84",56,8,2,84,"DAYS",6001],
[729,"CDISCPILOT01","718","718","01-718-1427",19344,19400,"Xanomeline High Dose",81,74,"65-80",2,"BLACK OR AFRICAN AMERICAN",2,"F","Y","Y","N","Week 16",16,"WEEK 8",8,64,19407,"CIBICVAL","CIBIC Score",1,4,"Y","LOCF","85-140",112,48,85,140,"DAYS",6001],
[730,"CDISCPILOT01","718","718","01-718-1427",19344,19400,"Xanomeline High Dose",81,74,"65-80",2,"BLACK OR AFRICAN AMERICAN",2,"F","Y","Y","N","Week 24",24,"RETRIEVAL",201,169,19512,"CIBICVAL","CIBIC Score",1,4,"Y","",">140",168,1,141,null,"DAYS",6002]
]}}}}